"T1pos","acc","accuracy","average_response_time","avg_rt","background","canvas_backend","clock_backend","color_backend","compensation","coordinates","correct","correct_block_instructions","correct_get_response","correct_response","count_RSVP","count_ask_response","count_block_instructions","count_block_loop","count_block_sequence","count_experiment","count_experimental_loop","count_feedback","count_fixation","count_get_response","count_getting_started","count_init_trial","count_init_vars","count_logger","count_trial_sequence","count_welcome","datetime","description","disable_garbage_collection","distractor_sex","distractors","experiment_file","experiment_path","font_bold","font_family","font_italic","font_size","font_underline","foreground","form_clicks","fullscreen","height","keyboard_backend","live_row","live_row_block_loop","live_row_experimental_loop","logfile","mouse_backend","opensesame_codename","opensesame_version","repeat_cycle","response","response_block_instructions","response_get_response","response_time","response_time_block_instructions","response_time_get_response","response_time_welcome","response_welcome","round_decimals","sampler_backend","sound_buf_size","sound_channels","sound_freq","sound_sample_size","start","subject_nr","subject_parity","target","target_sex","targets","time_RSVP","time_ask_response","time_block_instructions","time_block_loop","time_block_sequence","time_experiment","time_experimental_loop","time_feedback","time_fixation","time_get_response","time_getting_started","time_init_trial","time_init_vars","time_logger","time_trial_sequence","time_welcome","title","total_correct","total_response_time","total_responses","uniform_coordinates","width"
"8","0","0","892.6241250010207","892.6241250010207","#808080","psycho","psycho","psycho","0","uniform","0","undefined","0","m","0","0","0","0","0","0","0","0","0","0","0","0","0","0","0","0","Fri Dec 23 17:02:12 2022","The main experiment item","yes","female","processed_auto/f_0.jpg;processed_auto/f_1.jpg;processed_auto/f_2.jpg;processed_auto/f_3.jpg;processed_auto/f_4.jpg;processed_auto/f_5.jpg;processed_auto/f_6.jpg;processed_auto/f_7.jpg;processed_auto/f_8.jpg;processed_auto/f_9.jpg;processed_auto/f_10.jpg;processed_auto/f_11.jpg;processed_auto/f_12.jpg","test_experiment.osexp","/Users/robbertmijn/Documents/projecten_local/10K Faces/face-processor","no","mono","no","18","no","white","no","yes","768","psycho","0","0","0","/Users/robbertmijn/Documents/projecten_local/10K Faces/face-processor/subject-1.csv","psycho","Lentiform Loewenfeld","3.3.14","0","z","space","z","892.6241250010207","42502.79041600879","892.6241250010207","NA","NA","2","psycho","1024","2","48000","-16","experiment","1","odd","no","male","processed_auto/f_13.jpg;processed_auto/f_14.jpg","NA","48886.57841598615","3570.5315000377595","46085.54783300497","3562.8292079782113","3550.0038330210373","3550.962291075848","49790.04687501583","46219.09516607411","48886.84583303984","NA","46210.95683297608","3550.944457994774","50140.74470801279","46209.7084580455","NA","New experiment","0","892.6241250010207","1","yes","1024"
"6","0","0","782.1212089620531","782.1212089620531","#808080","psycho","psycho","psycho","0","uniform","0","undefined","0","z","1","1","0","0","0","0","0","1","1","1","0","1","0","1","1","0","Fri Dec 23 17:02:12 2022","The main experiment item","yes","female","processed_auto/f_15.jpg;processed_auto/f_16.jpg;processed_auto/f_17.jpg;processed_auto/f_18.jpg;processed_auto/f_19.jpg;processed_auto/f_20.jpg;processed_auto/f_21.jpg;processed_auto/f_22.jpg;processed_auto/f_23.jpg;processed_auto/f_24.jpg;processed_auto/f_25.jpg;processed_auto/f_26.jpg;processed_auto/f_27.jpg","test_experiment.osexp","/Users/robbertmijn/Documents/projecten_local/10K Faces/face-processor","no","mono","no","18","no","white","no","yes","768","psycho","1","1","0","/Users/robbertmijn/Documents/projecten_local/10K Faces/face-processor/subject-1.csv","psycho","Lentiform Loewenfeld","3.3.14","0","m","space","m","782.1212089620531","42502.79041600879","782.1212089620531","NA","NA","2","psycho","1024","2","48000","-16","experiment","1","odd","yes","male","processed_auto/m_0.jpg;processed_auto/f_28.jpg","NA","52959.945291047916","3570.5315000377595","46085.54783300497","3562.8292079782113","3550.0038330210373","3550.962291075848","53751.689541037194","50291.19941603858","52960.182166076265","NA","50286.472458043136","3550.944457994774","54102.855166071095","50286.23566601891","NA","New experiment","0","782.1212089620531","1","yes","1024"
"8","100","100","367.55645798984915","367.55645798984915","#808080","psycho","psycho","psycho","0","uniform","1","undefined","1","z","2","2","0","0","0","0","0","2","2","2","0","2","0","2","2","0","Fri Dec 23 17:02:12 2022","The main experiment item","yes","female","processed_auto/f_29.jpg;processed_auto/f_30.jpg;processed_auto/f_31.jpg;processed_auto/f_32.jpg;processed_auto/f_33.jpg;processed_auto/f_34.jpg;processed_auto/f_35.jpg;processed_auto/f_36.jpg;processed_auto/f_37.jpg;processed_auto/f_38.jpg;processed_auto/f_39.jpg;processed_auto/f_40.jpg;processed_auto/f_41.jpg","test_experiment.osexp","/Users/robbertmijn/Documents/projecten_local/10K Faces/face-processor","no","mono","no","18","no","white","no","yes","768","psycho","2","2","0","/Users/robbertmijn/Documents/projecten_local/10K Faces/face-processor/subject-1.csv","psycho","Lentiform Loewenfeld","3.3.14","0","z","space","z","367.55645798984915","42502.79041600879","367.55645798984915","NA","NA","2","psycho","1024","2","48000","-16","experiment","1","odd","yes","male","processed_auto/m_1.jpg;processed_auto/f_42.jpg","NA","56922.154249972664","3570.5315000377595","46085.54783300497","3562.8292079782113","3550.0038330210373","3550.962291075848","57300.03062507603","54255.26679097675","56922.39245807286","NA","54249.96675003786","3550.944457994774","57651.194749982096","54249.70333301462","NA","New experiment","1","367.55645798984915","1","yes","1024"
"8","100","100","328.07904202491045","328.07904202491045","#808080","psycho","psycho","psycho","0","uniform","1","undefined","1","z","3","3","0","0","0","0","0","3","3","3","0","3","0","3","3","0","Fri Dec 23 17:02:12 2022","The main experiment item","yes","female","processed_auto/f_43.jpg;processed_auto/f_44.jpg;processed_auto/f_45.jpg;processed_auto/f_46.jpg;processed_auto/f_47.jpg;processed_auto/f_48.jpg;processed_auto/f_49.jpg;processed_auto/f_50.jpg;processed_auto/f_51.jpg;processed_auto/f_52.jpg;processed_auto/f_53.jpg;processed_auto/f_54.jpg;processed_auto/f_55.jpg","test_experiment.osexp","/Users/robbertmijn/Documents/projecten_local/10K Faces/face-processor","no","mono","no","18","no","white","no","yes","768","psycho","3","3","0","/Users/robbertmijn/Documents/projecten_local/10K Faces/face-processor/subject-1.csv","psycho","Lentiform Loewenfeld","3.3.14","0","z","space","z","328.07904202491045","42502.79041600879","328.07904202491045","NA","NA","2","psycho","1024","2","48000","-16","experiment","1","odd","yes","male","processed_auto/m_2.jpg;processed_auto/f_56.jpg","NA","60465.62304103281","3570.5315000377595","46085.54783300497","3562.8292079782113","3550.0038330210373","3550.962291075848","60809.06979099382","57798.868332989514","60465.77016601805","NA","57795.05383304786","3550.944457994774","61160.201416001655","57794.7847499745","NA","New experiment","1","328.07904202491045","1","yes","1024"
"7","100","100","635.4671670123935","635.4671670123935","#808080","psycho","psycho","psycho","0","uniform","1","undefined","1","m","4","4","0","0","0","0","0","4","4","4","0","4","0","4","4","0","Fri Dec 23 17:02:12 2022","The main experiment item","yes","female","processed_auto/f_57.jpg;processed_auto/f_58.jpg;processed_auto/f_59.jpg;processed_auto/f_60.jpg;processed_auto/f_61.jpg;processed_auto/f_62.jpg;processed_auto/f_63.jpg;processed_auto/f_64.jpg;processed_auto/f_65.jpg;processed_auto/f_66.jpg;processed_auto/f_67.jpg;processed_auto/f_68.jpg;processed_auto/f_69.jpg","test_experiment.osexp","/Users/robbertmijn/Documents/projecten_local/10K Faces/face-processor","no","mono","no","18","no","white","no","yes","768","psycho","4","4","0","/Users/robbertmijn/Documents/projecten_local/10K Faces/face-processor/subject-1.csv","psycho","Lentiform Loewenfeld","3.3.14","0","m","space","m","635.4671670123935","42502.79041600879","635.4671670123935","NA","NA","2","psycho","1024","2","48000","-16","experiment","1","odd","no","male","processed_auto/f_70.jpg;processed_auto/f_71.jpg","NA","63975.60983302537","3570.5315000377595","46085.54783300497","3562.8292079782113","3550.0038330210373","3550.962291075848","64621.53945805039","61308.77154099289","63975.8374580415","NA","61305.016416008584","3550.944457994774","64972.71029104013","61304.74566598423","NA","New experiment","1","635.4671670123935","1","yes","1024"
"8","100","100","362.87354095838964","362.87354095838964","#808080","psycho","psycho","psycho","0","uniform","1","undefined","1","z","5","5","0","0","0","0","0","5","5","5","0","5","0","5","5","0","Fri Dec 23 17:02:12 2022","The main experiment item","yes","female","processed_auto/f_72.jpg;processed_auto/f_73.jpg;processed_auto/f_74.jpg;processed_auto/f_75.jpg;processed_auto/f_76.jpg;processed_auto/f_77.jpg;processed_auto/f_78.jpg;processed_auto/f_79.jpg;processed_auto/f_80.jpg;processed_auto/f_81.jpg;processed_auto/f_82.jpg;processed_auto/f_83.jpg;processed_auto/f_84.jpg","test_experiment.osexp","/Users/robbertmijn/Documents/projecten_local/10K Faces/face-processor","no","mono","no","18","no","white","no","yes","768","psycho","5","5","0","/Users/robbertmijn/Documents/projecten_local/10K Faces/face-processor/subject-1.csv","psycho","Lentiform Loewenfeld","3.3.14","0","z","space","z","362.87354095838964","42502.79041600879","362.87354095838964","NA","NA","2","psycho","1024","2","48000","-16","experiment","1","odd","yes","male","processed_auto/m_3.jpg;processed_auto/f_85.jpg","NA","67784.36504106503","3570.5315000377595","46085.54783300497","3562.8292079782113","3550.0038330210373","3550.962291075848","68157.61670807842","65119.195125065744","67784.58650002722","NA","65115.371208055876","3550.944457994774","68508.73545801733","65115.08350004442","NA","New experiment","1","362.87354095838964","1","yes","1024"
"5","100","100","356.76066600717604","356.76066600717604","#808080","psycho","psycho","psycho","0","uniform","1","undefined","1","z","6","6","0","0","0","0","0","6","6","6","0","6","0","6","6","0","Fri Dec 23 17:02:12 2022","The main experiment item","yes","female","processed_auto/f_86.jpg;processed_auto/f_87.jpg;processed_auto/f_88.jpg;processed_auto/f_89.jpg;processed_auto/f_90.jpg;processed_auto/f_91.jpg;processed_auto/f_92.jpg;processed_auto/f_93.jpg;processed_auto/f_94.jpg;processed_auto/f_95.jpg;processed_auto/f_96.jpg;processed_auto/f_97.jpg;processed_auto/f_98.jpg","test_experiment.osexp","/Users/robbertmijn/Documents/projecten_local/10K Faces/face-processor","no","mono","no","18","no","white","no","yes","768","psycho","6","6","0","/Users/robbertmijn/Documents/projecten_local/10K Faces/face-processor/subject-1.csv","psycho","Lentiform Loewenfeld","3.3.14","0","z","space","z","356.76066600717604","42502.79041600879","356.76066600717604","NA","NA","2","psycho","1024","2","48000","-16","experiment","1","odd","yes","male","processed_auto/m_4.jpg;processed_auto/f_99.jpg","NA","71322.99100002274","3570.5315000377595","46085.54783300497","3562.8292079782113","3550.0038330210373","3550.962291075848","71689.9922080338","68657.33700001147","71323.13949998934","NA","68653.5542079946","3550.944457994774","72040.49608297646","68653.33137498237","NA","New experiment","1","356.76066600717604","1","yes","1024"
"6","100","100","351.5648749889806","351.5648749889806","#808080","psycho","psycho","psycho","0","uniform","1","undefined","1","z","7","7","0","0","0","0","0","7","7","7","0","7","0","7","7","0","Fri Dec 23 17:02:12 2022","The main experiment item","yes","female","processed_auto/f_100.jpg;processed_auto/f_101.jpg;processed_auto/f_102.jpg;processed_auto/f_103.jpg;processed_auto/f_104.jpg;processed_auto/f_105.jpg;processed_auto/f_106.jpg;processed_auto/f_107.jpg;processed_auto/f_108.jpg;processed_auto/f_109.jpg;processed_auto/f_110.jpg;processed_auto/f_111.jpg;processed_auto/f_112.jpg","test_experiment.osexp","/Users/robbertmijn/Documents/projecten_local/10K Faces/face-processor","no","mono","no","18","no","white","no","yes","768","psycho","7","7","0","/Users/robbertmijn/Documents/projecten_local/10K Faces/face-processor/subject-1.csv","psycho","Lentiform Loewenfeld","3.3.14","0","z","space","z","351.5648749889806","42502.79041600879","351.5648749889806","NA","NA","2","psycho","1024","2","48000","-16","experiment","1","odd","yes","male","processed_auto/m_5.jpg;processed_auto/f_113.jpg","NA","74851.58145800233","3570.5315000377595","46085.54783300497","3562.8292079782113","3550.0038330210373","3550.962291075848","75212.72629103623","72186.24529102817","74851.72858298756","NA","72182.40312498529","3550.944457994774","75563.89420805499","72182.10904102307","NA","New experiment","1","351.5648749889806","1","yes","1024"
"8","0","0","483.40058396570385","483.40058396570385","#808080","psycho","psycho","psycho","0","uniform","0","undefined","0","m","8","8","0","0","0","0","0","8","8","8","0","8","0","8","8","0","Fri Dec 23 17:02:12 2022","The main experiment item","yes","female","processed_auto/f_114.jpg;processed_auto/f_115.jpg;processed_auto/f_116.jpg;processed_auto/f_117.jpg;processed_auto/f_118.jpg;processed_auto/f_119.jpg;processed_auto/f_120.jpg;processed_auto/f_121.jpg;processed_auto/f_122.jpg;processed_auto/f_123.jpg;processed_auto/f_124.jpg;processed_auto/f_125.jpg;processed_auto/f_126.jpg","test_experiment.osexp","/Users/robbertmijn/Documents/projecten_local/10K Faces/face-processor","no","mono","no","18","no","white","no","yes","768","psycho","8","8","0","/Users/robbertmijn/Documents/projecten_local/10K Faces/face-processor/subject-1.csv","psycho","Lentiform Loewenfeld","3.3.14","0","z","space","z","483.40058396570385","42502.79041600879","483.40058396570385","NA","NA","2","psycho","1024","2","48000","-16","experiment","1","odd","no","male","processed_auto/f_127.jpg;processed_auto/f_128.jpg","NA","78383.46008304507","3570.5315000377595","46085.54783300497","3562.8292079782113","3550.0038330210373","3550.962291075848","78877.18745798338","75710.45795804821","78383.69116606191","NA","75706.4530410571","3550.944457994774","79228.34783303551","75706.17429097183","NA","New experiment","0","483.40058396570385","1","yes","1024"
"7","100","100","617.5352500285953","617.5352500285953","#808080","psycho","psycho","psycho","0","uniform","1","undefined","1","m","9","9","0","0","0","0","0","9","9","9","0","9","0","9","9","0","Fri Dec 23 17:02:12 2022","The main experiment item","yes","female","processed_auto/f_129.jpg;processed_auto/f_130.jpg;processed_auto/f_131.jpg;processed_auto/f_132.jpg;processed_auto/f_133.jpg;processed_auto/f_134.jpg;processed_auto/f_135.jpg;processed_auto/f_136.jpg;processed_auto/f_137.jpg;processed_auto/f_138.jpg;processed_auto/f_139.jpg;processed_auto/f_140.jpg;processed_auto/f_141.jpg","test_experiment.osexp","/Users/robbertmijn/Documents/projecten_local/10K Faces/face-processor","no","mono","no","18","no","white","no","yes","768","psycho","9","9","0","/Users/robbertmijn/Documents/projecten_local/10K Faces/face-processor/subject-1.csv","psycho","Lentiform Loewenfeld","3.3.14","0","m","space","m","617.5352500285953","42502.79041600879","617.5352500285953","NA","NA","2","psycho","1024","2","48000","-16","experiment","1","odd","no","male","processed_auto/f_142.jpg;processed_auto/f_143.jpg","NA","82043.17874996923","3570.5315000377595","46085.54783300497","3562.8292079782113","3550.0038330210373","3550.962291075848","82670.95520801377","79376.34487496689","82043.32562501077","NA","79372.48462496791","3550.944457994774","83022.07612502389","79372.20008298755","NA","New experiment","1","617.5352500285953","1","yes","1024"
"8","100","100","1199.4215829763561","1199.4215829763561","#808080","psycho","psycho","psycho","0","uniform","1","undefined","1","m","10","10","0","0","0","0","0","10","10","10","0","10","0","10","10","0","Fri Dec 23 17:02:12 2022","The main experiment item","yes","female","processed_auto/f_144.jpg;processed_auto/f_145.jpg;processed_auto/f_146.jpg;processed_auto/f_147.jpg;processed_auto/f_148.jpg;processed_auto/f_149.jpg;processed_auto/f_150.jpg;processed_auto/f_151.jpg;processed_auto/f_152.jpg;processed_auto/f_153.jpg;processed_auto/f_154.jpg;processed_auto/f_155.jpg;processed_auto/f_156.jpg","test_experiment.osexp","/Users/robbertmijn/Documents/projecten_local/10K Faces/face-processor","no","mono","no","18","no","white","no","yes","768","psycho","10","10","0","/Users/robbertmijn/Documents/projecten_local/10K Faces/face-processor/subject-1.csv","psycho","Lentiform Loewenfeld","3.3.14","0","m","space","m","1199.4215829763561","42502.79041600879","1199.4215829763561","NA","NA","2","psycho","1024","2","48000","-16","experiment","1","odd","no","male","processed_auto/f_157.jpg;processed_auto/f_158.jpg","NA","85838.6689160252","3570.5315000377595","46085.54783300497","3562.8292079782113","3550.0038330210373","3550.962291075848","87050.2980829915","83171.70216597151","85838.88487506192","NA","83166.40941600781","3550.944457994774","87401.43520804122","83166.13887506537","NA","New experiment","1","1199.4215829763561","1","yes","1024"
"5","100","100","762.533166911453","762.533166911453","#808080","psycho","psycho","psycho","0","uniform","1","undefined","1","z","11","11","0","0","0","0","0","11","11","11","0","11","0","11","11","0","Fri Dec 23 17:02:12 2022","The main experiment item","yes","female","processed_auto/f_159.jpg;processed_auto/f_160.jpg;processed_auto/f_161.jpg;processed_auto/f_162.jpg;processed_auto/f_163.jpg;processed_auto/f_164.jpg;processed_auto/f_165.jpg;processed_auto/f_166.jpg;processed_auto/f_167.jpg;processed_auto/f_168.jpg;processed_auto/f_169.jpg;processed_auto/f_170.jpg;processed_auto/f_171.jpg","test_experiment.osexp","/Users/robbertmijn/Documents/projecten_local/10K Faces/face-processor","no","mono","no","18","no","white","no","yes","768","psycho","11","11","0","/Users/robbertmijn/Documents/projecten_local/10K Faces/face-processor/subject-1.csv","psycho","Lentiform Loewenfeld","3.3.14","0","z","space","z","762.533166911453","42502.79041600879","762.533166911453","NA","NA","2","psycho","1024","2","48000","-16","experiment","1","odd","yes","male","processed_auto/m_6.jpg;processed_auto/f_172.jpg","NA","90215.37629107479","3570.5315000377595","46085.54783300497","3562.8292079782113","3550.0038330210373","3550.962291075848","90987.62962501496","87550.10645801667","90215.59854107909","NA","87546.03587498423","3550.944457994774","91338.8077080017","87545.75208306778","NA","New experiment","1","762.533166911453","1","yes","1024"
"5","100","100","355.3348750574514","355.3348750574514","#808080","psycho","psycho","psycho","0","uniform","1","undefined","1","z","12","12","0","0","0","0","0","12","12","12","0","12","0","12","12","0","Fri Dec 23 17:02:12 2022","The main experiment item","yes","female","processed_auto/f_173.jpg;processed_auto/f_174.jpg;processed_auto/f_175.jpg;processed_auto/f_176.jpg;processed_auto/f_177.jpg;processed_auto/f_178.jpg;processed_auto/f_179.jpg;processed_auto/f_180.jpg;processed_auto/f_181.jpg;processed_auto/f_182.jpg;processed_auto/f_183.jpg;processed_auto/f_184.jpg;processed_auto/f_185.jpg","test_experiment.osexp","/Users/robbertmijn/Documents/projecten_local/10K Faces/face-processor","no","mono","no","18","no","white","no","yes","768","psycho","12","12","0","/Users/robbertmijn/Documents/projecten_local/10K Faces/face-processor/subject-1.csv","psycho","Lentiform Loewenfeld","3.3.14","0","z","space","z","355.3348750574514","42502.79041600879","355.3348750574514","NA","NA","2","psycho","1024","2","48000","-16","experiment","1","odd","yes","male","processed_auto/m_7.jpg;processed_auto/f_186.jpg","NA","94154.31987505872","3570.5315000377595","46085.54783300497","3562.8292079782113","3550.0038330210373","3550.962291075848","94521.1030410137","91488.42170799617","94154.56091600936","NA","91483.78991603386","3550.944457994774","94872.20687500667","91483.49591600709","NA","New experiment","1","355.3348750574514","1","yes","1024"
"7","0","0","14349.181666970253","14349.181666970253","#808080","psycho","psycho","psycho","0","uniform","0","undefined","0","z","13","13","0","0","0","0","0","13","13","13","0","13","0","13","13","0","Fri Dec 23 17:02:12 2022","The main experiment item","yes","female","processed_auto/f_187.jpg;processed_auto/f_188.jpg;processed_auto/f_189.jpg;processed_auto/f_190.jpg;processed_auto/f_191.jpg;processed_auto/f_192.jpg;processed_auto/f_193.jpg;processed_auto/f_194.jpg;processed_auto/f_195.jpg;processed_auto/f_196.jpg;processed_auto/f_197.jpg;processed_auto/f_198.jpg;processed_auto/f_199.jpg","test_experiment.osexp","/Users/robbertmijn/Documents/projecten_local/10K Faces/face-processor","no","mono","no","18","no","white","no","yes","768","psycho","13","13","0","/Users/robbertmijn/Documents/projecten_local/10K Faces/face-processor/subject-1.csv","psycho","Lentiform Loewenfeld","3.3.14","0","m","space","m","14349.181666970253","42502.79041600879","14349.181666970253","NA","NA","2","psycho","1024","2","48000","-16","experiment","1","odd","yes","male","processed_auto/m_8.jpg;processed_auto/f_200.jpg","NA","97689.00279107038","3570.5315000377595","46085.54783300497","3562.8292079782113","3550.0038330210373","3550.962291075848","112051.72524997033","95021.01279096678","97689.14854107425","NA","95016.55166607816","3550.944457994774","112402.88870804943","95016.32941607386","NA","New experiment","0","14349.181666970253","1","yes","1024"
"6","100","100","440.9486249787733","440.9486249787733","#808080","psycho","psycho","psycho","0","uniform","1","undefined","1","m","14","14","0","0","0","0","0","14","14","14","0","14","0","14","14","0","Fri Dec 23 17:02:12 2022","The main experiment item","yes","female","processed_auto/f_201.jpg;processed_auto/f_202.jpg;processed_auto/f_203.jpg;processed_auto/f_204.jpg;processed_auto/f_205.jpg;processed_auto/f_206.jpg;processed_auto/f_207.jpg;processed_auto/f_208.jpg;processed_auto/f_209.jpg;processed_auto/f_210.jpg;processed_auto/f_211.jpg;processed_auto/f_212.jpg;processed_auto/f_213.jpg","test_experiment.osexp","/Users/robbertmijn/Documents/projecten_local/10K Faces/face-processor","no","mono","no","18","no","white","no","yes","768","psycho","14","14","0","/Users/robbertmijn/Documents/projecten_local/10K Faces/face-processor/subject-1.csv","psycho","Lentiform Loewenfeld","3.3.14","0","m","space","m","440.9486249787733","42502.79041600879","440.9486249787733","NA","NA","2","psycho","1024","2","48000","-16","experiment","1","odd","no","male","processed_auto/f_214.jpg;processed_auto/f_215.jpg","NA","115218.6825000681","3570.5315000377595","46085.54783300497","3562.8292079782113","3550.0038330210373","3550.962291075848","115669.26312504802","112551.64025002159","115218.90420804266","NA","112546.69874999672","3550.944457994774","116020.4536250094","112546.41145805363","NA","New experiment","1","440.9486249787733","1","yes","1024"
"5","0","0","658.0462089041248","658.0462089041248","#808080","psycho","psycho","psycho","0","uniform","0","undefined","0","m","15","15","0","0","0","0","0","15","15","15","0","15","0","15","15","0","Fri Dec 23 17:02:12 2022","The main experiment item","yes","female","processed_auto/f_216.jpg;processed_auto/f_217.jpg;processed_auto/f_218.jpg;processed_auto/f_219.jpg;processed_auto/f_220.jpg;processed_auto/f_221.jpg;processed_auto/f_222.jpg;processed_auto/f_223.jpg;processed_auto/f_224.jpg;processed_auto/f_225.jpg;processed_auto/f_226.jpg;processed_auto/f_227.jpg;processed_auto/f_228.jpg","test_experiment.osexp","/Users/robbertmijn/Documents/projecten_local/10K Faces/face-processor","no","mono","no","18","no","white","no","yes","768","psycho","15","15","0","/Users/robbertmijn/Documents/projecten_local/10K Faces/face-processor/subject-1.csv","psycho","Lentiform Loewenfeld","3.3.14","0","z","space","z","658.0462089041248","42502.79041600879","658.0462089041248","NA","NA","2","psycho","1024","2","48000","-16","experiment","1","odd","no","male","processed_auto/f_229.jpg;processed_auto/f_230.jpg","NA","118834.59716604557","3570.5315000377595","46085.54783300497","3562.8292079782113","3550.0038330210373","3550.962291075848","119502.91554105934","116167.9617910413","118834.80204106309","NA","116164.16612500325","3550.944457994774","119854.06445804983","116163.88762497809","NA","New experiment","0","658.0462089041248","1","yes","1024"
"5","100","100","692.0783749083057","692.0783749083057","#808080","psycho","psycho","psycho","0","uniform","1","undefined","1","m","16","16","0","0","0","0","0","16","16","16","0","16","0","16","16","0","Fri Dec 23 17:02:12 2022","The main experiment item","yes","female","processed_auto/f_231.jpg;processed_auto/f_232.jpg;processed_auto/f_233.jpg;processed_auto/f_234.jpg;processed_auto/f_235.jpg;processed_auto/f_236.jpg;processed_auto/f_237.jpg;processed_auto/f_238.jpg;processed_auto/f_239.jpg;processed_auto/f_240.jpg;processed_auto/f_241.jpg;processed_auto/f_242.jpg;processed_auto/f_243.jpg","test_experiment.osexp","/Users/robbertmijn/Documents/projecten_local/10K Faces/face-processor","no","mono","no","18","no","white","no","yes","768","psycho","16","16","0","/Users/robbertmijn/Documents/projecten_local/10K Faces/face-processor/subject-1.csv","psycho","Lentiform Loewenfeld","3.3.14","0","m","space","m","692.0783749083057","42502.79041600879","692.0783749083057","NA","NA","2","psycho","1024","2","48000","-16","experiment","1","odd","no","male","processed_auto/f_244.jpg;processed_auto/f_245.jpg","NA","122667.0052909758","3570.5315000377595","46085.54783300497","3562.8292079782113","3550.0038330210373","3550.962291075848","123368.77950001508","120000.58087497018","122667.22591605503","NA","119996.76500004716","3550.944457994774","123719.96333298739","119996.56979099382","NA","New experiment","1","692.0783749083057","1","yes","1024"
"6","100","100","413.29141694586724","413.29141694586724","#808080","psycho","psycho","psycho","0","uniform","1","undefined","1","z","17","17","0","0","0","0","0","17","17","17","0","17","0","17","17","0","Fri Dec 23 17:02:12 2022","The main experiment item","yes","female","processed_auto/f_246.jpg;processed_auto/f_247.jpg;processed_auto/f_248.jpg;processed_auto/f_249.jpg;processed_auto/f_250.jpg;processed_auto/f_251.jpg;processed_auto/f_252.jpg;processed_auto/f_253.jpg;processed_auto/f_254.jpg;processed_auto/f_255.jpg;processed_auto/f_256.jpg;processed_auto/f_257.jpg;processed_auto/f_258.jpg","test_experiment.osexp","/Users/robbertmijn/Documents/projecten_local/10K Faces/face-processor","no","mono","no","18","no","white","no","yes","768","psycho","17","17","0","/Users/robbertmijn/Documents/projecten_local/10K Faces/face-processor/subject-1.csv","psycho","Lentiform Loewenfeld","3.3.14","0","z","space","z","413.29141694586724","42502.79041600879","413.29141694586724","NA","NA","2","psycho","1024","2","48000","-16","experiment","1","odd","yes","male","processed_auto/m_9.jpg;processed_auto/f_259.jpg","NA","126534.9209579872","3570.5315000377595","46085.54783300497","3562.8292079782113","3550.0038330210373","3550.962291075848","126958.45608296804","123869.88354101777","126535.14654107857","NA","123865.20574998576","3550.944457994774","127309.58875000942","123864.95441605803","NA","New experiment","1","413.29141694586724","1","yes","1024"
"6","100","100","4999.279250041582","4999.279250041582","#808080","psycho","psycho","psycho","0","uniform","1","undefined","1","m","18","18","0","0","0","0","0","18","18","18","0","18","0","18","18","0","Fri Dec 23 17:02:12 2022","The main experiment item","yes","female","processed_auto/f_260.jpg;processed_auto/f_261.jpg;processed_auto/f_262.jpg;processed_auto/f_263.jpg;processed_auto/f_264.jpg;processed_auto/f_265.jpg;processed_auto/f_266.jpg;processed_auto/f_267.jpg;processed_auto/f_268.jpg;processed_auto/f_269.jpg;processed_auto/f_270.jpg;processed_auto/f_271.jpg;processed_auto/f_272.jpg","test_experiment.osexp","/Users/robbertmijn/Documents/projecten_local/10K Faces/face-processor","no","mono","no","18","no","white","no","yes","768","psycho","18","18","0","/Users/robbertmijn/Documents/projecten_local/10K Faces/face-processor/subject-1.csv","psycho","Lentiform Loewenfeld","3.3.14","0","m","space","m","4999.279250041582","42502.79041600879","4999.279250041582","NA","NA","2","psycho","1024","2","48000","-16","experiment","1","odd","no","male","processed_auto/f_273.jpg;processed_auto/f_274.jpg","NA","130126.89312500879","3570.5315000377595","46085.54783300497","3562.8292079782113","3550.0038330210373","3550.962291075848","135142.96720805578","127459.6252500778","130127.11100000888","NA","127452.71033304743","3550.944457994774","135494.1040830454","127452.47933303472","NA","New experiment","1","4999.279250041582","1","yes","1024"
"7","0","0","592.7685840288177","592.7685840288177","#808080","psycho","psycho","psycho","0","uniform","0","undefined","0","z","19","19","0","0","0","0","0","19","19","19","0","19","0","19","19","0","Fri Dec 23 17:02:12 2022","The main experiment item","yes","female","processed_auto/f_275.jpg;processed_auto/f_276.jpg;processed_auto/f_277.jpg;processed_auto/f_278.jpg;processed_auto/f_279.jpg;processed_auto/f_280.jpg;processed_auto/f_281.jpg;processed_auto/f_282.jpg;processed_auto/f_283.jpg;processed_auto/f_284.jpg;processed_auto/f_285.jpg;processed_auto/f_286.jpg;processed_auto/f_287.jpg","test_experiment.osexp","/Users/robbertmijn/Documents/projecten_local/10K Faces/face-processor","no","mono","no","18","no","white","no","yes","768","psycho","19","19","0","/Users/robbertmijn/Documents/projecten_local/10K Faces/face-processor/subject-1.csv","psycho","Lentiform Loewenfeld","3.3.14","0","m","space","m","592.7685840288177","42502.79041600879","592.7685840288177","NA","NA","2","psycho","1024","2","48000","-16","experiment","1","odd","yes","male","processed_auto/m_10.jpg;processed_auto/f_288.jpg","NA","138315.88999996893","3570.5315000377595","46085.54783300497","3562.8292079782113","3550.0038330210373","3550.962291075848","138919.03375007678","135641.43895800225","138316.12154096365","NA","135637.60162505787","3550.944457994774","139270.1938750688","135637.32854102273","NA","New experiment","0","592.7685840288177","1","yes","1024"
"5","100","100","848.0574999703094","848.0574999703094","#808080","psycho","psycho","psycho","0","uniform","1","undefined","1","m","20","20","0","0","0","0","0","20","20","20","0","20","0","20","20","0","Fri Dec 23 17:02:12 2022","The main experiment item","yes","female","processed_auto/f_289.jpg;processed_auto/f_290.jpg;processed_auto/f_291.jpg;processed_auto/f_292.jpg;processed_auto/f_293.jpg;processed_auto/f_294.jpg;processed_auto/f_295.jpg;processed_auto/f_296.jpg;processed_auto/f_297.jpg;processed_auto/f_298.jpg;processed_auto/f_299.jpg;processed_auto/f_300.jpg;processed_auto/f_301.jpg","test_experiment.osexp","/Users/robbertmijn/Documents/projecten_local/10K Faces/face-processor","no","mono","no","18","no","white","no","yes","768","psycho","20","20","0","/Users/robbertmijn/Documents/projecten_local/10K Faces/face-processor/subject-1.csv","psycho","Lentiform Loewenfeld","3.3.14","0","m","space","m","848.0574999703094","42502.79041600879","848.0574999703094","NA","NA","2","psycho","1024","2","48000","-16","experiment","1","odd","no","male","processed_auto/f_302.jpg;processed_auto/f_303.jpg","NA","142090.13320796657","3570.5315000377595","46085.54783300497","3562.8292079782113","3550.0038330210373","3550.962291075848","142948.13379098196","139419.4672909798","142090.36350005772","NA","139414.75716605783","3550.944457994774","143299.29037496913","139414.552000002","NA","New experiment","1","848.0574999703094","1","yes","1024"
"7","100","100","405.75316606555134","405.75316606555134","#808080","psycho","psycho","psycho","0","uniform","1","undefined","1","z","21","21","0","0","0","0","0","21","21","21","0","21","0","21","21","0","Fri Dec 23 17:02:12 2022","The main experiment item","yes","female","processed_auto/f_304.jpg;processed_auto/f_305.jpg;processed_auto/f_306.jpg;processed_auto/f_307.jpg;processed_auto/f_308.jpg;processed_auto/f_309.jpg;processed_auto/f_310.jpg;processed_auto/f_311.jpg;processed_auto/f_312.jpg;processed_auto/f_313.jpg;processed_auto/f_314.jpg;processed_auto/f_315.jpg;processed_auto/f_316.jpg","test_experiment.osexp","/Users/robbertmijn/Documents/projecten_local/10K Faces/face-processor","no","mono","no","18","no","white","no","yes","768","psycho","21","21","0","/Users/robbertmijn/Documents/projecten_local/10K Faces/face-processor/subject-1.csv","psycho","Lentiform Loewenfeld","3.3.14","0","z","space","z","405.75316606555134","42502.79041600879","405.75316606555134","NA","NA","2","psycho","1024","2","48000","-16","experiment","1","odd","yes","male","processed_auto/m_11.jpg;processed_auto/f_317.jpg","NA","146118.780250079","3570.5315000377595","46085.54783300497","3562.8292079782113","3550.0038330210373","3550.962291075848","146534.02491600718","143448.18449998274","146118.99975000415","NA","143443.1862910278","3550.944457994774","146885.22108306643","143442.92462500744","NA","New experiment","1","405.75316606555134","1","yes","1024"
"7","100","100","681.472041993402","681.472041993402","#808080","psycho","psycho","psycho","0","uniform","1","undefined","1","m","22","22","0","0","0","0","0","22","22","22","0","22","0","22","22","0","Fri Dec 23 17:02:12 2022","The main experiment item","yes","female","processed_auto/f_318.jpg;processed_auto/f_319.jpg;processed_auto/f_320.jpg;processed_auto/f_321.jpg;processed_auto/f_322.jpg;processed_auto/f_323.jpg;processed_auto/f_324.jpg;processed_auto/f_325.jpg;processed_auto/f_326.jpg;processed_auto/f_327.jpg;processed_auto/f_328.jpg;processed_auto/f_329.jpg;processed_auto/f_330.jpg","test_experiment.osexp","/Users/robbertmijn/Documents/projecten_local/10K Faces/face-processor","no","mono","no","18","no","white","no","yes","768","psycho","22","22","0","/Users/robbertmijn/Documents/projecten_local/10K Faces/face-processor/subject-1.csv","psycho","Lentiform Loewenfeld","3.3.14","0","m","space","m","681.472041993402","42502.79041600879","681.472041993402","NA","NA","2","psycho","1024","2","48000","-16","experiment","1","odd","no","male","processed_auto/f_331.jpg;processed_auto/f_332.jpg","NA","149699.1675000172","3570.5315000377595","46085.54783300497","3562.8292079782113","3550.0038330210373","3550.962291075848","150390.82858304027","147033.53800007608","149699.39233304467","NA","147030.46833304688","3550.944457994774","150741.97145807557","147030.19037505146","NA","New experiment","1","681.472041993402","1","yes","1024"
"6","100","100","458.9525420451537","458.9525420451537","#808080","psycho","psycho","psycho","0","uniform","1","undefined","1","m","23","23","0","0","0","0","0","23","23","23","0","23","0","23","23","0","Fri Dec 23 17:02:12 2022","The main experiment item","yes","female","processed_auto/f_333.jpg;processed_auto/f_334.jpg;processed_auto/f_335.jpg;processed_auto/f_336.jpg;processed_auto/f_337.jpg;processed_auto/f_338.jpg;processed_auto/f_339.jpg;processed_auto/f_340.jpg;processed_auto/f_341.jpg;processed_auto/f_342.jpg;processed_auto/f_343.jpg;processed_auto/f_344.jpg;processed_auto/f_345.jpg","test_experiment.osexp","/Users/robbertmijn/Documents/projecten_local/10K Faces/face-processor","no","mono","no","18","no","white","no","yes","768","psycho","23","23","0","/Users/robbertmijn/Documents/projecten_local/10K Faces/face-processor/subject-1.csv","psycho","Lentiform Loewenfeld","3.3.14","0","m","space","m","458.9525420451537","42502.79041600879","458.9525420451537","NA","NA","2","psycho","1024","2","48000","-16","experiment","1","odd","no","male","processed_auto/f_346.jpg;processed_auto/f_347.jpg","NA","153557.86108307075","3570.5315000377595","46085.54783300497","3562.8292079782113","3550.0038330210373","3550.962291075848","154026.40237507876","150890.69787506014","153558.07616596576","NA","150885.6341249775","3550.944457994774","154377.61091603898","150885.37083298434","NA","New experiment","1","458.9525420451537","1","yes","1024"
"5","100","100","490.37949997000396","490.37949997000396","#808080","psycho","psycho","psycho","0","uniform","1","0","1","m","24","24","1","1","1","0","0","24","24","24","0","24","0","24","24","0","Fri Dec 23 17:02:12 2022","The main experiment item","yes","male","processed_auto/m_12.jpg;processed_auto/m_13.jpg;processed_auto/m_14.jpg;processed_auto/m_15.jpg;processed_auto/m_16.jpg;processed_auto/m_17.jpg;processed_auto/m_18.jpg;processed_auto/m_19.jpg;processed_auto/m_20.jpg;processed_auto/m_21.jpg;processed_auto/m_22.jpg;processed_auto/m_23.jpg;processed_auto/m_24.jpg","test_experiment.osexp","/Users/robbertmijn/Documents/projecten_local/10K Faces/face-processor","no","mono","no","18","no","white","no","yes","768","psycho","0","0","1","/Users/robbertmijn/Documents/projecten_local/10K Faces/face-processor/subject-1.csv","psycho","Lentiform Loewenfeld","3.3.14","0","m","space","m","490.37949997000396","2206.663207965903","490.37949997000396","NA","NA","2","psycho","1024","2","48000","-16","experiment","1","odd","no","female","processed_auto/m_25.jpg;processed_auto/m_26.jpg","NA","159463.17608305253","154460.43308300432","156669.13625004236","154454.14916600566","3550.0038330210373","3550.962291075848","159963.8645000523","156785.2693750756","159463.3157500066","NA","156779.62529100478","3550.944457994774","160315.0161249796","156779.35295796487","NA","New experiment","1","490.37949997000396","1","yes","1024"
"5","100","100","433.2801670534536","433.2801670534536","#808080","psycho","psycho","psycho","0","uniform","1","0","1","z","25","25","1","1","1","0","0","25","25","25","0","25","0","25","25","0","Fri Dec 23 17:02:12 2022","The main experiment item","yes","male","processed_auto/m_27.jpg;processed_auto/m_28.jpg;processed_auto/m_29.jpg;processed_auto/m_30.jpg;processed_auto/m_31.jpg;processed_auto/m_32.jpg;processed_auto/m_33.jpg;processed_auto/m_34.jpg;processed_auto/m_35.jpg;processed_auto/m_36.jpg;processed_auto/m_37.jpg;processed_auto/m_38.jpg;processed_auto/m_39.jpg","test_experiment.osexp","/Users/robbertmijn/Documents/projecten_local/10K Faces/face-processor","no","mono","no","18","no","white","no","yes","768","psycho","1","1","1","/Users/robbertmijn/Documents/projecten_local/10K Faces/face-processor/subject-1.csv","psycho","Lentiform Loewenfeld","3.3.14","0","z","space","z","433.2801670534536","2206.663207965903","433.2801670534536","NA","NA","2","psycho","1024","2","48000","-16","experiment","1","odd","yes","female","processed_auto/f_348.jpg;processed_auto/m_40.jpg","NA","163128.67137498688","154460.43308300432","156669.13625004236","154454.14916600566","3550.0038330210373","3550.962291075848","163571.65462500416","160463.62141601276","163128.9000409888","NA","160459.86883307341","3550.944457994774","163922.81929100864","160459.6458330052","NA","New experiment","1","433.2801670534536","1","yes","1024"
"8","100","100","351.96841694414616","351.96841694414616","#808080","psycho","psycho","psycho","0","uniform","1","0","1","z","26","26","1","1","1","0","0","26","26","26","0","26","0","26","26","0","Fri Dec 23 17:02:12 2022","The main experiment item","yes","male","processed_auto/m_41.jpg;processed_auto/m_42.jpg;processed_auto/m_43.jpg;processed_auto/m_44.jpg;processed_auto/m_45.jpg;processed_auto/m_46.jpg;processed_auto/m_47.jpg;processed_auto/m_48.jpg;processed_auto/m_49.jpg;processed_auto/m_50.jpg;processed_auto/m_51.jpg;processed_auto/m_52.jpg;processed_auto/m_53.jpg","test_experiment.osexp","/Users/robbertmijn/Documents/projecten_local/10K Faces/face-processor","no","mono","no","18","no","white","no","yes","768","psycho","2","2","1","/Users/robbertmijn/Documents/projecten_local/10K Faces/face-processor/subject-1.csv","psycho","Lentiform Loewenfeld","3.3.14","0","z","space","z","351.96841694414616","2206.663207965903","351.96841694414616","NA","NA","2","psycho","1024","2","48000","-16","experiment","1","odd","yes","female","processed_auto/f_349.jpg;processed_auto/m_54.jpg","NA","166736.11075000372","154460.43308300432","156669.13625004236","154454.14916600566","3550.0038330210373","3550.962291075848","167097.60104096495","164069.6247080341","166736.26145801973","NA","164066.45733304322","3550.944457994774","167448.8199580228","164066.2275410723","NA","New experiment","1","351.96841694414616","1","yes","1024"
"6","0","0","368.77499998081475","368.77499998081475","#808080","psycho","psycho","psycho","0","uniform","0","0","0","m","27","27","1","1","1","0","0","27","27","27","0","27","0","27","27","0","Fri Dec 23 17:02:12 2022","The main experiment item","yes","male","processed_auto/m_55.jpg;processed_auto/m_56.jpg;processed_auto/m_57.jpg;processed_auto/m_58.jpg;processed_auto/m_59.jpg;processed_auto/m_60.jpg;processed_auto/m_61.jpg;processed_auto/m_62.jpg;processed_auto/m_63.jpg;processed_auto/m_64.jpg;processed_auto/m_65.jpg;processed_auto/m_66.jpg;processed_auto/m_67.jpg","test_experiment.osexp","/Users/robbertmijn/Documents/projecten_local/10K Faces/face-processor","no","mono","no","18","no","white","no","yes","768","psycho","3","3","1","/Users/robbertmijn/Documents/projecten_local/10K Faces/face-processor/subject-1.csv","psycho","Lentiform Loewenfeld","3.3.14","0","z","space","z","368.77499998081475","2206.663207965903","368.77499998081475","NA","NA","2","psycho","1024","2","48000","-16","experiment","1","odd","no","female","processed_auto/m_68.jpg;processed_auto/m_69.jpg","NA","170265.76908305287","154460.43308300432","156669.13625004236","154454.14916600566","3550.0038330210373","3550.962291075848","170644.87608300988","167596.98645805474","170265.98975004163","NA","167593.18587498274","3550.944457994774","170996.03583302815","167592.91912498884","NA","New experiment","0","368.77499998081475","1","yes","1024"
"6","0","0","534.6625840757042","534.6625840757042","#808080","psycho","psycho","psycho","0","uniform","0","0","0","z","28","28","1","1","1","0","0","28","28","28","0","28","0","28","28","0","Fri Dec 23 17:02:12 2022","The main experiment item","yes","male","processed_auto/m_70.jpg;processed_auto/m_71.jpg;processed_auto/m_72.jpg;processed_auto/m_73.jpg;processed_auto/m_74.jpg;processed_auto/m_75.jpg;processed_auto/m_76.jpg;processed_auto/m_77.jpg;processed_auto/m_78.jpg;processed_auto/m_79.jpg;processed_auto/m_80.jpg;processed_auto/m_81.jpg;processed_auto/m_82.jpg","test_experiment.osexp","/Users/robbertmijn/Documents/projecten_local/10K Faces/face-processor","no","mono","no","18","no","white","no","yes","768","psycho","4","4","1","/Users/robbertmijn/Documents/projecten_local/10K Faces/face-processor/subject-1.csv","psycho","Lentiform Loewenfeld","3.3.14","0","m","space","m","534.6625840757042","2206.663207965903","534.6625840757042","NA","NA","2","psycho","1024","2","48000","-16","experiment","1","odd","yes","female","processed_auto/f_350.jpg;processed_auto/m_83.jpg","NA","173812.99379107077","154460.43308300432","156669.13625004236","154454.14916600566","3550.0038330210373","3550.962291075848","174357.98916604836","171145.06033307407","173813.23254096787","NA","171141.29499997944","3550.944457994774","174709.1580410488","171141.0211659968","NA","New experiment","0","534.6625840757042","1","yes","1024"
"6","0","0","511.5827500121668","511.5827500121668","#808080","psycho","psycho","psycho","0","uniform","0","0","0","m","29","29","1","1","1","0","0","29","29","29","0","29","0","29","29","0","Fri Dec 23 17:02:12 2022","The main experiment item","yes","male","processed_auto/m_84.jpg;processed_auto/m_85.jpg;processed_auto/m_86.jpg;processed_auto/m_87.jpg;processed_auto/m_88.jpg;processed_auto/m_89.jpg;processed_auto/m_90.jpg;processed_auto/m_91.jpg;processed_auto/m_92.jpg;processed_auto/m_93.jpg;processed_auto/m_94.jpg;processed_auto/m_95.jpg;processed_auto/m_96.jpg","test_experiment.osexp","/Users/robbertmijn/Documents/projecten_local/10K Faces/face-processor","no","mono","no","18","no","white","no","yes","768","psycho","5","5","1","/Users/robbertmijn/Documents/projecten_local/10K Faces/face-processor/subject-1.csv","psycho","Lentiform Loewenfeld","3.3.14","0","z","space","z","511.5827500121668","2206.663207965903","511.5827500121668","NA","NA","2","psycho","1024","2","48000","-16","experiment","1","odd","no","female","processed_auto/m_97.jpg;processed_auto/m_98.jpg","NA","177521.96812501643","154460.43308300432","156669.13625004236","154454.14916600566","3550.0038330210373","3550.962291075848","178043.1293330621","174856.3563330099","177522.21199998166","NA","174852.45037497953","3550.944457994774","178394.2795000039","174852.1927910624","NA","New experiment","0","511.5827500121668","1","yes","1024"
"7","100","100","1165.7780420500785","1165.7780420500785","#808080","psycho","psycho","psycho","0","uniform","1","0","1","z","30","30","1","1","1","0","0","30","30","30","0","30","0","30","30","0","Fri Dec 23 17:02:12 2022","The main experiment item","yes","male","processed_auto/m_99.jpg;processed_auto/m_100.jpg;processed_auto/m_101.jpg;processed_auto/m_102.jpg;processed_auto/m_103.jpg;processed_auto/m_104.jpg;processed_auto/m_105.jpg;processed_auto/m_106.jpg;processed_auto/m_107.jpg;processed_auto/m_108.jpg;processed_auto/m_109.jpg;processed_auto/m_110.jpg;processed_auto/m_111.jpg","test_experiment.osexp","/Users/robbertmijn/Documents/projecten_local/10K Faces/face-processor","no","mono","no","18","no","white","no","yes","768","psycho","6","6","1","/Users/robbertmijn/Documents/projecten_local/10K Faces/face-processor/subject-1.csv","psycho","Lentiform Loewenfeld","3.3.14","0","z","space","z","1165.7780420500785","2206.663207965903","1165.7780420500785","NA","NA","2","psycho","1024","2","48000","-16","experiment","1","odd","yes","female","processed_auto/f_351.jpg;processed_auto/m_112.jpg","NA","181211.8700830033","154460.43308300432","156669.13625004236","154454.14916600566","3550.0038330210373","3550.962291075848","182392.01312500518","178540.2780000586","181212.1257079998","NA","178537.21662505995","3550.944457994774","182743.13254107255","178536.998125026","NA","New experiment","1","1165.7780420500785","1","yes","1024"
"7","100","100","483.7150420062244","483.7150420062244","#808080","psycho","psycho","psycho","0","uniform","1","0","1","m","31","31","1","1","1","0","0","31","31","31","0","31","0","31","31","0","Fri Dec 23 17:02:12 2022","The main experiment item","yes","male","processed_auto/m_113.jpg;processed_auto/m_114.jpg;processed_auto/m_115.jpg;processed_auto/m_116.jpg;processed_auto/m_117.jpg;processed_auto/m_118.jpg;processed_auto/m_119.jpg;processed_auto/m_120.jpg;processed_auto/m_121.jpg;processed_auto/m_122.jpg;processed_auto/m_123.jpg;processed_auto/m_124.jpg;processed_auto/m_125.jpg","test_experiment.osexp","/Users/robbertmijn/Documents/projecten_local/10K Faces/face-processor","no","mono","no","18","no","white","no","yes","768","psycho","7","7","1","/Users/robbertmijn/Documents/projecten_local/10K Faces/face-processor/subject-1.csv","psycho","Lentiform Loewenfeld","3.3.14","0","m","space","m","483.7150420062244","2206.663207965903","483.7150420062244","NA","NA","2","psycho","1024","2","48000","-16","experiment","1","odd","no","female","processed_auto/m_126.jpg;processed_auto/m_127.jpg","NA","185558.7069579633","154460.43308300432","156669.13625004236","154454.14916600566","3550.0038330210373","3550.962291075848","186052.00920801144","182890.51033300348","185558.9309160132","NA","182886.48020802066","3550.944457994774","186403.21395802312","182886.20283303317","NA","New experiment","1","483.7150420062244","1","yes","1024"
"7","100","100","859.1183749958873","859.1183749958873","#808080","psycho","psycho","psycho","0","uniform","1","0","1","m","32","32","1","1","1","0","0","32","32","32","0","32","0","32","32","0","Fri Dec 23 17:02:12 2022","The main experiment item","yes","male","processed_auto/m_128.jpg;processed_auto/m_129.jpg;processed_auto/m_130.jpg;processed_auto/m_131.jpg;processed_auto/m_132.jpg;processed_auto/m_133.jpg;processed_auto/m_134.jpg;processed_auto/m_135.jpg;processed_auto/m_136.jpg;processed_auto/m_137.jpg;processed_auto/m_138.jpg;processed_auto/m_139.jpg;processed_auto/m_140.jpg","test_experiment.osexp","/Users/robbertmijn/Documents/projecten_local/10K Faces/face-processor","no","mono","no","18","no","white","no","yes","768","psycho","8","8","1","/Users/robbertmijn/Documents/projecten_local/10K Faces/face-processor/subject-1.csv","psycho","Lentiform Loewenfeld","3.3.14","0","m","space","m","859.1183749958873","2206.663207965903","859.1183749958873","NA","NA","2","psycho","1024","2","48000","-16","experiment","1","odd","no","female","processed_auto/m_141.jpg;processed_auto/m_142.jpg","NA","189218.4479580028","154460.43308300432","156669.13625004236","154454.14916600566","3550.0038330210373","3550.962291075848","190088.3557080524","186549.39025000203","189218.69708306622","NA","186546.24491604045","3550.944457994774","190439.46295802016","186546.01829103194","NA","New experiment","1","859.1183749958873","1","yes","1024"
"8","100","100","593.9267498906702","593.9267498906702","#808080","psycho","psycho","psycho","0","uniform","1","0","1","m","33","33","1","1","1","0","0","33","33","33","0","33","0","33","33","0","Fri Dec 23 17:02:12 2022","The main experiment item","yes","male","processed_auto/m_143.jpg;processed_auto/m_144.jpg;processed_auto/m_145.jpg;processed_auto/m_146.jpg;processed_auto/m_147.jpg;processed_auto/m_148.jpg;processed_auto/m_149.jpg;processed_auto/m_150.jpg;processed_auto/m_151.jpg;processed_auto/m_152.jpg;processed_auto/m_153.jpg;processed_auto/m_154.jpg;processed_auto/m_155.jpg","test_experiment.osexp","/Users/robbertmijn/Documents/projecten_local/10K Faces/face-processor","no","mono","no","18","no","white","no","yes","768","psycho","9","9","1","/Users/robbertmijn/Documents/projecten_local/10K Faces/face-processor/subject-1.csv","psycho","Lentiform Loewenfeld","3.3.14","0","m","space","m","593.9267498906702","2206.663207965903","593.9267498906702","NA","NA","2","psycho","1024","2","48000","-16","experiment","1","odd","no","female","processed_auto/m_156.jpg;processed_auto/m_157.jpg","NA","193256.7087500356","154460.43308300432","156669.13625004236","154454.14916600566","3550.0038330210373","3550.962291075848","193860.89616606478","190588.28762499616","193256.9312080741","NA","190583.26666604262","3550.944457994774","194212.06304105","190583.05758307688","NA","New experiment","1","593.9267498906702","1","yes","1024"
"7","0","0","305.1130420062691","305.1130420062691","#808080","psycho","psycho","psycho","0","uniform","0","0","0","m","34","34","1","1","1","0","0","34","34","34","0","34","0","34","34","0","Fri Dec 23 17:02:12 2022","The main experiment item","yes","male","processed_auto/m_158.jpg;processed_auto/m_159.jpg;processed_auto/m_160.jpg;processed_auto/m_161.jpg;processed_auto/m_162.jpg;processed_auto/m_163.jpg;processed_auto/m_164.jpg;processed_auto/m_165.jpg;processed_auto/m_166.jpg;processed_auto/m_167.jpg;processed_auto/m_168.jpg;processed_auto/m_169.jpg;processed_auto/m_170.jpg","test_experiment.osexp","/Users/robbertmijn/Documents/projecten_local/10K Faces/face-processor","no","mono","no","18","no","white","no","yes","768","psycho","10","10","1","/Users/robbertmijn/Documents/projecten_local/10K Faces/face-processor/subject-1.csv","psycho","Lentiform Loewenfeld","3.3.14","0","z","space","z","305.1130420062691","2206.663207965903","305.1130420062691","NA","NA","2","psycho","1024","2","48000","-16","experiment","1","odd","no","female","processed_auto/m_171.jpg;processed_auto/m_172.jpg","NA","197024.83450004365","154460.43308300432","156669.13625004236","154454.14916600566","3550.0038330210373","3550.962291075848","197341.1715410184","194359.5592910424","197025.06783301942","NA","194355.73974996805","3550.944457994774","197692.35799997114","194355.4736659862","NA","New experiment","0","305.1130420062691","1","yes","1024"
"6","100","100","926.4055829262361","926.4055829262361","#808080","psycho","psycho","psycho","0","uniform","1","0","1","m","35","35","1","1","1","0","0","35","35","35","0","35","0","35","35","0","Fri Dec 23 17:02:12 2022","The main experiment item","yes","male","processed_auto/m_173.jpg;processed_auto/m_174.jpg;processed_auto/m_175.jpg;processed_auto/m_176.jpg;processed_auto/m_177.jpg;processed_auto/m_178.jpg;processed_auto/m_179.jpg;processed_auto/m_180.jpg;processed_auto/m_181.jpg;processed_auto/m_182.jpg;processed_auto/m_183.jpg;processed_auto/m_184.jpg;processed_auto/m_185.jpg","test_experiment.osexp","/Users/robbertmijn/Documents/projecten_local/10K Faces/face-processor","no","mono","no","18","no","white","no","yes","768","psycho","11","11","1","/Users/robbertmijn/Documents/projecten_local/10K Faces/face-processor/subject-1.csv","psycho","Lentiform Loewenfeld","3.3.14","0","m","space","m","926.4055829262361","2206.663207965903","926.4055829262361","NA","NA","2","psycho","1024","2","48000","-16","experiment","1","odd","no","female","processed_auto/m_186.jpg;processed_auto/m_187.jpg","NA","200510.5030409759","154460.43308300432","156669.13625004236","154454.14916600566","3550.0038330210373","3550.962291075848","201448.06233304553","197843.49762497004","200510.7153330464","NA","197839.6534579806","3550.944457994774","201799.2206660565","197839.37549998518","NA","New experiment","1","926.4055829262361","1","yes","1024"
"8","100","100","571.3311249855906","571.3311249855906","#808080","psycho","psycho","psycho","0","uniform","1","0","1","z","36","36","1","1","1","0","0","36","36","36","0","36","0","36","36","0","Fri Dec 23 17:02:12 2022","The main experiment item","yes","male","processed_auto/m_188.jpg;processed_auto/m_189.jpg;processed_auto/m_190.jpg;processed_auto/m_191.jpg;processed_auto/m_192.jpg;processed_auto/m_193.jpg;processed_auto/m_194.jpg;processed_auto/m_195.jpg;processed_auto/m_196.jpg;processed_auto/m_197.jpg;processed_auto/m_198.jpg;processed_auto/m_199.jpg;processed_auto/m_200.jpg","test_experiment.osexp","/Users/robbertmijn/Documents/projecten_local/10K Faces/face-processor","no","mono","no","18","no","white","no","yes","768","psycho","12","12","1","/Users/robbertmijn/Documents/projecten_local/10K Faces/face-processor/subject-1.csv","psycho","Lentiform Loewenfeld","3.3.14","0","z","space","z","571.3311249855906","2206.663207965903","571.3311249855906","NA","NA","2","psycho","1024","2","48000","-16","experiment","1","odd","yes","female","processed_auto/f_352.jpg;processed_auto/m_201.jpg","NA","204613.43570798635","154460.43308300432","156669.13625004236","154454.14916600566","3550.0038330210373","3550.962291075848","205195.08845801465","201948.08316603303","204613.66200004704","NA","201942.99412507098","3550.944457994774","205546.2205830263","201942.71208299324","NA","New experiment","1","571.3311249855906","1","yes","1024"
"8","0","0","371.1365839699283","371.1365839699283","#808080","psycho","psycho","psycho","0","uniform","0","0","0","m","37","37","1","1","1","0","0","37","37","37","0","37","0","37","37","0","Fri Dec 23 17:02:12 2022","The main experiment item","yes","male","processed_auto/m_202.jpg;processed_auto/m_203.jpg;processed_auto/m_204.jpg;processed_auto/m_205.jpg;processed_auto/m_206.jpg;processed_auto/m_207.jpg;processed_auto/m_208.jpg;processed_auto/m_209.jpg;processed_auto/m_210.jpg;processed_auto/m_211.jpg;processed_auto/m_212.jpg;processed_auto/m_213.jpg;processed_auto/m_214.jpg","test_experiment.osexp","/Users/robbertmijn/Documents/projecten_local/10K Faces/face-processor","no","mono","no","18","no","white","no","yes","768","psycho","13","13","1","/Users/robbertmijn/Documents/projecten_local/10K Faces/face-processor/subject-1.csv","psycho","Lentiform Loewenfeld","3.3.14","0","z","space","z","371.1365839699283","2206.663207965903","371.1365839699283","NA","NA","2","psycho","1024","2","48000","-16","experiment","1","odd","no","female","processed_auto/m_215.jpg;processed_auto/m_216.jpg","NA","208359.78866601363","154460.43308300432","156669.13625004236","154454.14916600566","3550.0038330210373","3550.962291075848","208741.33558303583","205694.9427910149","208360.0306659937","NA","205691.0800000187","3550.944457994774","209092.5042500021","205690.88708306663","NA","New experiment","0","371.1365839699283","1","yes","1024"
"7","100","100","1028.2220419030637","1028.2220419030637","#808080","psycho","psycho","psycho","0","uniform","1","0","1","z","38","38","1","1","1","0","0","38","38","38","0","38","0","38","38","0","Fri Dec 23 17:02:12 2022","The main experiment item","yes","male","processed_auto/m_217.jpg;processed_auto/m_218.jpg;processed_auto/m_219.jpg;processed_auto/m_220.jpg;processed_auto/m_221.jpg;processed_auto/m_222.jpg;processed_auto/m_223.jpg;processed_auto/m_224.jpg;processed_auto/m_225.jpg;processed_auto/m_226.jpg;processed_auto/m_227.jpg;processed_auto/m_228.jpg;processed_auto/m_229.jpg","test_experiment.osexp","/Users/robbertmijn/Documents/projecten_local/10K Faces/face-processor","no","mono","no","18","no","white","no","yes","768","psycho","14","14","1","/Users/robbertmijn/Documents/projecten_local/10K Faces/face-processor/subject-1.csv","psycho","Lentiform Loewenfeld","3.3.14","0","z","space","z","1028.2220419030637","2206.663207965903","1028.2220419030637","NA","NA","2","psycho","1024","2","48000","-16","experiment","1","odd","yes","female","processed_auto/f_353.jpg;processed_auto/m_230.jpg","NA","211905.55658307858","154460.43308300432","156669.13625004236","154454.14916600566","3550.0038330210373","3550.962291075848","212944.2481250735","209240.1507080067","211905.8045410784","NA","209236.36595800053","3550.944457994774","213295.38274998777","209236.1736659659","NA","New experiment","1","1028.2220419030637","1","yes","1024"
"7","100","100","320.4305829713121","320.4305829713121","#808080","psycho","psycho","psycho","0","uniform","1","0","1","z","39","39","1","1","1","0","0","39","39","39","0","39","0","39","39","0","Fri Dec 23 17:02:12 2022","The main experiment item","yes","male","processed_auto/m_231.jpg;processed_auto/m_232.jpg;processed_auto/m_233.jpg;processed_auto/m_234.jpg;processed_auto/m_235.jpg;processed_auto/m_236.jpg;processed_auto/m_237.jpg;processed_auto/m_238.jpg;processed_auto/m_239.jpg;processed_auto/m_240.jpg;processed_auto/m_241.jpg;processed_auto/m_242.jpg;processed_auto/m_243.jpg","test_experiment.osexp","/Users/robbertmijn/Documents/projecten_local/10K Faces/face-processor","no","mono","no","18","no","white","no","yes","768","psycho","15","15","1","/Users/robbertmijn/Documents/projecten_local/10K Faces/face-processor/subject-1.csv","psycho","Lentiform Loewenfeld","3.3.14","0","z","space","z","320.4305829713121","2206.663207965903","320.4305829713121","NA","NA","2","psycho","1024","2","48000","-16","experiment","1","odd","yes","female","processed_auto/f_354.jpg;processed_auto/m_244.jpg","NA","216109.9003329873","154460.43308300432","156669.13625004236","154454.14916600566","3550.0038330210373","3550.962291075848","216440.60933298897","213443.22383299004","216110.12995801866","NA","213439.42249997053","3550.944457994774","216791.76212497987","213439.1450410476","NA","New experiment","1","320.4305829713121","1","yes","1024"
"5","100","100","326.71895797830075","326.71895797830075","#808080","psycho","psycho","psycho","0","uniform","1","0","1","z","40","40","1","1","1","0","0","40","40","40","0","40","0","40","40","0","Fri Dec 23 17:02:12 2022","The main experiment item","yes","male","processed_auto/m_245.jpg;processed_auto/m_246.jpg;processed_auto/m_247.jpg;processed_auto/m_248.jpg;processed_auto/m_249.jpg;processed_auto/m_250.jpg;processed_auto/m_251.jpg;processed_auto/m_252.jpg;processed_auto/m_253.jpg;processed_auto/m_254.jpg;processed_auto/m_255.jpg;processed_auto/m_256.jpg;processed_auto/m_257.jpg","test_experiment.osexp","/Users/robbertmijn/Documents/projecten_local/10K Faces/face-processor","no","mono","no","18","no","white","no","yes","768","psycho","16","16","1","/Users/robbertmijn/Documents/projecten_local/10K Faces/face-processor/subject-1.csv","psycho","Lentiform Loewenfeld","3.3.14","0","z","space","z","326.71895797830075","2206.663207965903","326.71895797830075","NA","NA","2","psycho","1024","2","48000","-16","experiment","1","odd","yes","female","processed_auto/f_355.jpg;processed_auto/m_258.jpg","NA","219606.48529103491","154460.43308300432","156669.13625004236","154454.14916600566","3550.0038330210373","3550.962291075848","219942.93387501966","216938.88208304998","219606.74670804292","NA","216935.76387502253","3550.944457994774","220294.11312507","216935.49333303235","NA","New experiment","1","326.71895797830075","1","yes","1024"
"8","100","100","348.57341705355793","348.57341705355793","#808080","psycho","psycho","psycho","0","uniform","1","0","1","z","41","41","1","1","1","0","0","41","41","41","0","41","0","41","41","0","Fri Dec 23 17:02:12 2022","The main experiment item","yes","male","processed_auto/m_259.jpg;processed_auto/m_260.jpg;processed_auto/m_261.jpg;processed_auto/m_262.jpg;processed_auto/m_263.jpg;processed_auto/m_264.jpg;processed_auto/m_265.jpg;processed_auto/m_266.jpg;processed_auto/m_267.jpg;processed_auto/m_268.jpg;processed_auto/m_269.jpg;processed_auto/m_270.jpg;processed_auto/m_271.jpg","test_experiment.osexp","/Users/robbertmijn/Documents/projecten_local/10K Faces/face-processor","no","mono","no","18","no","white","no","yes","768","psycho","17","17","1","/Users/robbertmijn/Documents/projecten_local/10K Faces/face-processor/subject-1.csv","psycho","Lentiform Loewenfeld","3.3.14","0","z","space","z","348.57341705355793","2206.663207965903","348.57341705355793","NA","NA","2","psycho","1024","2","48000","-16","experiment","1","odd","yes","female","processed_auto/f_356.jpg;processed_auto/m_272.jpg","NA","223106.46579100285","154460.43308300432","156669.13625004236","154454.14916600566","3550.0038330210373","3550.962291075848","223465.43591597583","220442.11212499067","223106.68845800683","NA","220438.33250005264","3550.944457994774","223816.57687504776","220438.04450007156","NA","New experiment","1","348.57341705355793","1","yes","1024"
"6","100","100","360.18525005783886","360.18525005783886","#808080","psycho","psycho","psycho","0","uniform","1","0","1","z","42","42","1","1","1","0","0","42","42","42","0","42","0","42","42","0","Fri Dec 23 17:02:12 2022","The main experiment item","yes","male","processed_auto/m_273.jpg;processed_auto/m_274.jpg;processed_auto/m_275.jpg;processed_auto/m_276.jpg;processed_auto/m_277.jpg;processed_auto/m_278.jpg;processed_auto/m_279.jpg;processed_auto/m_280.jpg;processed_auto/m_281.jpg;processed_auto/m_282.jpg;processed_auto/m_283.jpg;processed_auto/m_284.jpg;processed_auto/m_285.jpg","test_experiment.osexp","/Users/robbertmijn/Documents/projecten_local/10K Faces/face-processor","no","mono","no","18","no","white","no","yes","768","psycho","18","18","1","/Users/robbertmijn/Documents/projecten_local/10K Faces/face-processor/subject-1.csv","psycho","Lentiform Loewenfeld","3.3.14","0","z","space","z","360.18525005783886","2206.663207965903","360.18525005783886","NA","NA","2","psycho","1024","2","48000","-16","experiment","1","odd","yes","female","processed_auto/f_357.jpg;processed_auto/m_286.jpg","NA","226628.66270798258","154460.43308300432","156669.13625004236","154454.14916600566","3550.0038330210373","3550.962291075848","226999.12712501828","223963.25187501498","226628.8811659906","NA","223959.4485410489","3550.944457994774","227350.30454106163","223959.1650830116","NA","New experiment","1","360.18525005783886","1","yes","1024"
"5","100","100","228.22924994397908","228.22924994397908","#808080","psycho","psycho","psycho","0","uniform","1","0","1","z","43","43","1","1","1","0","0","43","43","43","0","43","0","43","43","0","Fri Dec 23 17:02:12 2022","The main experiment item","yes","male","processed_auto/m_287.jpg;processed_auto/m_288.jpg;processed_auto/m_289.jpg;processed_auto/m_290.jpg;processed_auto/m_291.jpg;processed_auto/m_292.jpg;processed_auto/m_293.jpg;processed_auto/m_294.jpg;processed_auto/m_295.jpg;processed_auto/m_296.jpg;processed_auto/m_297.jpg;processed_auto/m_298.jpg;processed_auto/m_299.jpg","test_experiment.osexp","/Users/robbertmijn/Documents/projecten_local/10K Faces/face-processor","no","mono","no","18","no","white","no","yes","768","psycho","19","19","1","/Users/robbertmijn/Documents/projecten_local/10K Faces/face-processor/subject-1.csv","psycho","Lentiform Loewenfeld","3.3.14","0","z","space","z","228.22924994397908","2206.663207965903","228.22924994397908","NA","NA","2","psycho","1024","2","48000","-16","experiment","1","odd","yes","female","processed_auto/f_358.jpg;processed_auto/m_300.jpg","NA","230164.0490409918","154460.43308300432","156669.13625004236","154454.14916600566","3550.0038330210373","3550.962291075848","230402.06158300862","227498.28670802526","230164.27475004457","NA","227494.51133306138","3550.944457994774","230753.24275007006","227494.24095801078","NA","New experiment","1","228.22924994397908","1","yes","1024"
"8","100","100","426.25429097097367","426.25429097097367","#808080","psycho","psycho","psycho","0","uniform","1","0","1","m","44","44","1","1","1","0","0","44","44","44","0","44","0","44","44","0","Fri Dec 23 17:02:12 2022","The main experiment item","yes","male","processed_auto/m_301.jpg;processed_auto/m_302.jpg;processed_auto/m_303.jpg;processed_auto/m_304.jpg;processed_auto/m_305.jpg;processed_auto/m_306.jpg;processed_auto/m_307.jpg;processed_auto/m_308.jpg;processed_auto/m_309.jpg;processed_auto/m_310.jpg;processed_auto/m_311.jpg;processed_auto/m_312.jpg;processed_auto/m_313.jpg","test_experiment.osexp","/Users/robbertmijn/Documents/projecten_local/10K Faces/face-processor","no","mono","no","18","no","white","no","yes","768","psycho","20","20","1","/Users/robbertmijn/Documents/projecten_local/10K Faces/face-processor/subject-1.csv","psycho","Lentiform Loewenfeld","3.3.14","0","m","space","m","426.25429097097367","2206.663207965903","426.25429097097367","NA","NA","2","psycho","1024","2","48000","-16","experiment","1","odd","no","female","processed_auto/m_314.jpg;processed_auto/m_315.jpg","NA","233565.3735829983","154460.43308300432","156669.13625004236","154454.14916600566","3550.0038330210373","3550.962291075848","234002.0648330683","230898.43737496994","233565.62737503555","NA","230895.2546250075","3550.944457994774","234353.20033307653","230895.05008305423","NA","New experiment","1","426.25429097097367","1","yes","1024"
"6","0","0","579.1800000006333","579.1800000006333","#808080","psycho","psycho","psycho","0","uniform","0","0","0","z","45","45","1","1","1","0","0","45","45","45","0","45","0","45","45","0","Fri Dec 23 17:02:12 2022","The main experiment item","yes","male","processed_auto/m_316.jpg;processed_auto/m_317.jpg;processed_auto/m_318.jpg;processed_auto/m_319.jpg;processed_auto/m_320.jpg;processed_auto/m_321.jpg;processed_auto/m_322.jpg;processed_auto/m_323.jpg;processed_auto/m_324.jpg;processed_auto/m_325.jpg;processed_auto/m_326.jpg;processed_auto/m_327.jpg;processed_auto/m_328.jpg","test_experiment.osexp","/Users/robbertmijn/Documents/projecten_local/10K Faces/face-processor","no","mono","no","18","no","white","no","yes","768","psycho","21","21","1","/Users/robbertmijn/Documents/projecten_local/10K Faces/face-processor/subject-1.csv","psycho","Lentiform Loewenfeld","3.3.14","0","m","space","m","579.1800000006333","2206.663207965903","579.1800000006333","NA","NA","2","psycho","1024","2","48000","-16","experiment","1","odd","yes","female","processed_auto/f_359.jpg;processed_auto/m_329.jpg","NA","237169.63454103097","154460.43308300432","156669.13625004236","154454.14916600566","3550.0038330210373","3550.962291075848","237760.2544160327","234501.44016603008","237169.85858301632","NA","234497.41383304354","3550.944457994774","238111.43979104236","234497.12725006975","NA","New experiment","0","579.1800000006333","1","yes","1024"
"5","100","100","477.32729197014123","477.32729197014123","#808080","psycho","psycho","psycho","0","uniform","1","0","1","m","46","46","1","1","1","0","0","46","46","46","0","46","0","46","46","0","Fri Dec 23 17:02:12 2022","The main experiment item","yes","male","processed_auto/m_330.jpg;processed_auto/m_331.jpg;processed_auto/m_332.jpg;processed_auto/m_333.jpg;processed_auto/m_334.jpg;processed_auto/m_335.jpg;processed_auto/m_336.jpg;processed_auto/m_337.jpg;processed_auto/m_338.jpg;processed_auto/m_339.jpg;processed_auto/m_340.jpg;processed_auto/m_341.jpg;processed_auto/m_342.jpg","test_experiment.osexp","/Users/robbertmijn/Documents/projecten_local/10K Faces/face-processor","no","mono","no","18","no","white","no","yes","768","psycho","22","22","1","/Users/robbertmijn/Documents/projecten_local/10K Faces/face-processor/subject-1.csv","psycho","Lentiform Loewenfeld","3.3.14","0","m","space","m","477.32729197014123","2206.663207965903","477.32729197014123","NA","NA","2","psycho","1024","2","48000","-16","experiment","1","odd","no","female","processed_auto/m_343.jpg;processed_auto/m_344.jpg","NA","240928.72262501623","154460.43308300432","156669.13625004236","154454.14916600566","3550.0038330210373","3550.962291075848","241416.37099999934","238260.7047080528","240928.94683300983","NA","238256.9201249862","3550.944457994774","241767.0485000126","238256.69241603464","NA","New experiment","1","477.32729197014123","1","yes","1024"
"5","100","100","474.9067499069497","474.9067499069497","#808080","psycho","psycho","psycho","0","uniform","1","0","1","m","47","47","1","1","1","0","0","47","47","47","0","47","0","47","47","0","Fri Dec 23 17:02:12 2022","The main experiment item","yes","male","processed_auto/m_345.jpg;processed_auto/m_346.jpg;processed_auto/m_347.jpg;processed_auto/m_348.jpg;processed_auto/m_349.jpg;processed_auto/m_350.jpg;processed_auto/m_351.jpg;processed_auto/m_352.jpg;processed_auto/m_353.jpg;processed_auto/m_354.jpg;processed_auto/m_355.jpg;processed_auto/m_356.jpg;processed_auto/m_357.jpg","test_experiment.osexp","/Users/robbertmijn/Documents/projecten_local/10K Faces/face-processor","no","mono","no","18","no","white","no","yes","768","psycho","23","23","1","/Users/robbertmijn/Documents/projecten_local/10K Faces/face-processor/subject-1.csv","psycho","Lentiform Loewenfeld","3.3.14","0","m","space","m","474.9067499069497","2206.663207965903","474.9067499069497","NA","NA","2","psycho","1024","2","48000","-16","experiment","1","odd","no","female","processed_auto/m_358.jpg;processed_auto/m_359.jpg","NA","244580.49987501","154460.43308300432","156669.13625004236","154454.14916600566","3550.0038330210373","3550.962291075848","245065.68712496664","241916.2567500025","244580.7320830645","NA","241912.4273749767","3550.944457994774","245416.86395800207","241912.1644999832","NA","New experiment","1","474.9067499069497","1","yes","1024"
"6","0","0","733.2802920136601","733.2802920136601","#808080","psycho","psycho","psycho","0","uniform","0","1","0","z","48","48","2","2","2","0","0","48","48","48","0","48","0","48","48","0","Fri Dec 23 17:02:12 2022","The main experiment item","yes","female","processed_auto/f_360.jpg;processed_auto/f_361.jpg;processed_auto/f_362.jpg;processed_auto/f_363.jpg;processed_auto/f_364.jpg;processed_auto/f_365.jpg;processed_auto/f_366.jpg;processed_auto/f_367.jpg;processed_auto/f_368.jpg;processed_auto/f_369.jpg;processed_auto/f_370.jpg;processed_auto/f_371.jpg;processed_auto/f_372.jpg","test_experiment.osexp","/Users/robbertmijn/Documents/projecten_local/10K Faces/face-processor","no","mono","no","18","no","white","no","yes","768","psycho","0","0","2","/Users/robbertmijn/Documents/projecten_local/10K Faces/face-processor/subject-1.csv","psycho","Lentiform Loewenfeld","3.3.14","0","m","m","m","733.2802920136601","1403.0949580483139","733.2802920136601","NA","NA","2","psycho","1024","2","48000","-16","experiment","1","odd","yes","male","processed_auto/m_360.jpg;processed_auto/f_373.jpg","NA","249684.62337506935","245496.76250002813","246901.92700002808","245493.2061249856","3550.0038330210373","3550.962291075848","250428.26633306686","247018.902208074","249684.85533306375","NA","247012.2813329799","3550.944457994774","250779.43487500306","247012.01320800465","NA","New experiment","0","733.2802920136601","1","yes","1024"
"5","100","100","430.8840419398621","430.8840419398621","#808080","psycho","psycho","psycho","0","uniform","1","1","1","z","49","49","2","2","2","0","0","49","49","49","0","49","0","49","49","0","Fri Dec 23 17:02:12 2022","The main experiment item","yes","female","processed_auto/f_374.jpg;processed_auto/f_375.jpg;processed_auto/f_376.jpg;processed_auto/f_377.jpg;processed_auto/f_378.jpg;processed_auto/f_379.jpg;processed_auto/f_380.jpg;processed_auto/f_381.jpg;processed_auto/f_382.jpg;processed_auto/f_383.jpg;processed_auto/f_384.jpg;processed_auto/f_385.jpg;processed_auto/f_386.jpg","test_experiment.osexp","/Users/robbertmijn/Documents/projecten_local/10K Faces/face-processor","no","mono","no","18","no","white","no","yes","768","psycho","1","1","2","/Users/robbertmijn/Documents/projecten_local/10K Faces/face-processor/subject-1.csv","psycho","Lentiform Loewenfeld","3.3.14","0","z","m","z","430.8840419398621","1403.0949580483139","430.8840419398621","NA","NA","2","psycho","1024","2","48000","-16","experiment","1","odd","yes","male","processed_auto/m_361.jpg;processed_auto/f_387.jpg","NA","253599.20625004452","245496.76250002813","246901.92700002808","245493.2061249856","3550.0038330210373","3550.962291075848","254039.6630410105","250928.52987500373","253599.4207910262","NA","250923.53158304468","3550.944457994774","254390.88083303068","250923.29783306923","NA","New experiment","1","430.8840419398621","1","yes","1024"
"8","0","0","813.1420409772545","813.1420409772545","#808080","psycho","psycho","psycho","0","uniform","0","1","0","z","50","50","2","2","2","0","0","50","50","50","0","50","0","50","50","0","Fri Dec 23 17:02:12 2022","The main experiment item","yes","female","processed_auto/f_388.jpg;processed_auto/f_389.jpg;processed_auto/f_390.jpg;processed_auto/f_391.jpg;processed_auto/f_392.jpg;processed_auto/f_393.jpg;processed_auto/f_394.jpg;processed_auto/f_395.jpg;processed_auto/f_396.jpg;processed_auto/f_397.jpg;processed_auto/f_398.jpg;processed_auto/f_399.jpg;processed_auto/f_400.jpg","test_experiment.osexp","/Users/robbertmijn/Documents/projecten_local/10K Faces/face-processor","no","mono","no","18","no","white","no","yes","768","psycho","2","2","2","/Users/robbertmijn/Documents/projecten_local/10K Faces/face-processor/subject-1.csv","psycho","Lentiform Loewenfeld","3.3.14","0","m","m","m","813.1420409772545","1403.0949580483139","813.1420409772545","NA","NA","2","psycho","1024","2","48000","-16","experiment","1","odd","yes","male","processed_auto/m_362.jpg;processed_auto/f_401.jpg","NA","257209.72737506963","245496.76250002813","246901.92700002808","245493.2061249856","3550.0038330210373","3550.962291075848","258034.073791001","254538.74529106542","257209.95525002945","NA","254535.20033298992","3550.944457994774","258385.21904102527","254534.9340409739","NA","New experiment","0","813.1420409772545","1","yes","1024"
"6","0","0","637.7127919113263","637.7127919113263","#808080","psycho","psycho","psycho","0","uniform","0","1","0","z","51","51","2","2","2","0","0","51","51","51","0","51","0","51","51","0","Fri Dec 23 17:02:12 2022","The main experiment item","yes","female","processed_auto/f_402.jpg;processed_auto/f_403.jpg;processed_auto/f_404.jpg;processed_auto/f_405.jpg;processed_auto/f_406.jpg;processed_auto/f_407.jpg;processed_auto/f_408.jpg;processed_auto/f_409.jpg;processed_auto/f_410.jpg;processed_auto/f_411.jpg;processed_auto/f_412.jpg;processed_auto/f_413.jpg;processed_auto/f_414.jpg","test_experiment.osexp","/Users/robbertmijn/Documents/projecten_local/10K Faces/face-processor","no","mono","no","18","no","white","no","yes","768","psycho","3","3","2","/Users/robbertmijn/Documents/projecten_local/10K Faces/face-processor/subject-1.csv","psycho","Lentiform Loewenfeld","3.3.14","0","m","m","m","637.7127919113263","1403.0949580483139","637.7127919113263","NA","NA","2","psycho","1024","2","48000","-16","experiment","1","odd","yes","male","processed_auto/m_363.jpg;processed_auto/f_415.jpg","NA","261207.9430000158","245496.76250002813","246901.92700002808","245493.2061249856","3550.0038330210373","3550.962291075848","261855.43312504888","258535.84687504917","261208.17429106683","NA","258530.9206249658","3550.944457994774","262206.6380410688","258530.66008305177","NA","New experiment","0","637.7127919113263","1","yes","1024"
"8","0","0","476.94720805156976","476.94720805156976","#808080","psycho","psycho","psycho","0","uniform","0","1","0","z","52","52","2","2","2","0","0","52","52","52","0","52","0","52","52","0","Fri Dec 23 17:02:12 2022","The main experiment item","yes","female","processed_auto/f_416.jpg;processed_auto/f_417.jpg;processed_auto/f_418.jpg;processed_auto/f_419.jpg;processed_auto/f_420.jpg;processed_auto/f_421.jpg;processed_auto/f_422.jpg;processed_auto/f_423.jpg;processed_auto/f_424.jpg;processed_auto/f_425.jpg;processed_auto/f_426.jpg;processed_auto/f_427.jpg;processed_auto/f_428.jpg","test_experiment.osexp","/Users/robbertmijn/Documents/projecten_local/10K Faces/face-processor","no","mono","no","18","no","white","no","yes","768","psycho","4","4","2","/Users/robbertmijn/Documents/projecten_local/10K Faces/face-processor/subject-1.csv","psycho","Lentiform Loewenfeld","3.3.14","0","m","m","m","476.94720805156976","1403.0949580483139","476.94720805156976","NA","NA","2","psycho","1024","2","48000","-16","experiment","1","odd","yes","male","processed_auto/m_364.jpg;processed_auto/f_429.jpg","NA","265024.80429096613","245496.76250002813","246901.92700002808","245493.2061249856","3550.0038330210373","3550.962291075848","265511.4447500091","262355.9381250525","265025.0310000265","NA","262350.91350006405","3550.944457994774","265862.6054159831","262350.6884999806","NA","New experiment","0","476.94720805156976","1","yes","1024"
"7","100","100","439.36045898590237","439.36045898590237","#808080","psycho","psycho","psycho","0","uniform","1","1","1","m","53","53","2","2","2","0","0","53","53","53","0","53","0","53","53","0","Fri Dec 23 17:02:12 2022","The main experiment item","yes","female","processed_auto/f_430.jpg;processed_auto/f_431.jpg;processed_auto/f_432.jpg;processed_auto/f_433.jpg;processed_auto/f_434.jpg;processed_auto/f_435.jpg;processed_auto/f_436.jpg;processed_auto/f_437.jpg;processed_auto/f_438.jpg;processed_auto/f_439.jpg;processed_auto/f_440.jpg;processed_auto/f_441.jpg;processed_auto/f_442.jpg","test_experiment.osexp","/Users/robbertmijn/Documents/projecten_local/10K Faces/face-processor","no","mono","no","18","no","white","no","yes","768","psycho","5","5","2","/Users/robbertmijn/Documents/projecten_local/10K Faces/face-processor/subject-1.csv","psycho","Lentiform Loewenfeld","3.3.14","0","m","m","m","439.36045898590237","1403.0949580483139","439.36045898590237","NA","NA","2","psycho","1024","2","48000","-16","experiment","1","odd","no","male","processed_auto/f_443.jpg;processed_auto/f_444.jpg","NA","268674.148375052","245496.76250002813","246901.92700002808","245493.2061249856","3550.0038330210373","3550.962291075848","269123.7992499955","266008.67704104166","268674.3667910341","NA","266005.4441250395","3550.944457994774","269474.96820800006","266005.22829103284","NA","New experiment","1","439.36045898590237","1","yes","1024"
"8","100","100","1076.091125025414","1076.091125025414","#808080","psycho","psycho","psycho","0","uniform","1","1","1","m","54","54","2","2","2","0","0","54","54","54","0","54","0","54","54","0","Fri Dec 23 17:02:12 2022","The main experiment item","yes","female","processed_auto/f_445.jpg;processed_auto/f_446.jpg;processed_auto/f_447.jpg;processed_auto/f_448.jpg;processed_auto/f_449.jpg;processed_auto/f_450.jpg;processed_auto/f_451.jpg;processed_auto/f_452.jpg;processed_auto/f_453.jpg;processed_auto/f_454.jpg;processed_auto/f_455.jpg;processed_auto/f_456.jpg;processed_auto/f_457.jpg","test_experiment.osexp","/Users/robbertmijn/Documents/projecten_local/10K Faces/face-processor","no","mono","no","18","no","white","no","yes","768","psycho","6","6","2","/Users/robbertmijn/Documents/projecten_local/10K Faces/face-processor/subject-1.csv","psycho","Lentiform Loewenfeld","3.3.14","0","m","m","m","1076.091125025414","1403.0949580483139","1076.091125025414","NA","NA","2","psycho","1024","2","48000","-16","experiment","1","odd","no","male","processed_auto/f_458.jpg;processed_auto/f_459.jpg","NA","272288.4958749637","245496.76250002813","246901.92700002808","245493.2061249856","3550.0038330210373","3550.962291075848","273376.6155000776","269622.02233297285","272288.62904105335","NA","269618.7967080623","3550.944457994774","273727.77208301704","269618.52912500035","NA","New experiment","1","1076.091125025414","1","yes","1024"
"6","100","100","384.99208400025964","384.99208400025964","#808080","psycho","psycho","psycho","0","uniform","1","1","1","z","55","55","2","2","2","0","0","55","55","55","0","55","0","55","55","0","Fri Dec 23 17:02:12 2022","The main experiment item","yes","female","processed_auto/f_460.jpg;processed_auto/f_461.jpg;processed_auto/f_462.jpg;processed_auto/f_463.jpg;processed_auto/f_464.jpg;processed_auto/f_465.jpg;processed_auto/f_466.jpg;processed_auto/f_467.jpg;processed_auto/f_468.jpg;processed_auto/f_469.jpg;processed_auto/f_470.jpg;processed_auto/f_471.jpg;processed_auto/f_472.jpg","test_experiment.osexp","/Users/robbertmijn/Documents/projecten_local/10K Faces/face-processor","no","mono","no","18","no","white","no","yes","768","psycho","7","7","2","/Users/robbertmijn/Documents/projecten_local/10K Faces/face-processor/subject-1.csv","psycho","Lentiform Loewenfeld","3.3.14","0","z","m","z","384.99208400025964","1403.0949580483139","384.99208400025964","NA","NA","2","psycho","1024","2","48000","-16","experiment","1","odd","yes","male","processed_auto/m_365.jpg;processed_auto/f_473.jpg","NA","276540.3992079664","245496.76250002813","246901.92700002808","245493.2061249856","3550.0038330210373","3550.962291075848","276935.1159579819","273874.0308750421","276540.6202910235","NA","273869.8180000065","3550.944457994774","277286.3350000698","273869.5445000194","NA","New experiment","1","384.99208400025964","1","yes","1024"
"7","0","0","14429.031957988627","14429.031957988627","#808080","psycho","psycho","psycho","0","uniform","0","1","0","z","56","56","2","2","2","0","0","56","56","56","0","56","0","56","56","0","Fri Dec 23 17:02:12 2022","The main experiment item","yes","female","processed_auto/f_474.jpg;processed_auto/f_475.jpg;processed_auto/f_476.jpg;processed_auto/f_477.jpg;processed_auto/f_478.jpg;processed_auto/f_479.jpg;processed_auto/f_480.jpg;processed_auto/f_481.jpg;processed_auto/f_482.jpg;processed_auto/f_483.jpg;processed_auto/f_484.jpg;processed_auto/f_485.jpg;processed_auto/f_486.jpg","test_experiment.osexp","/Users/robbertmijn/Documents/projecten_local/10K Faces/face-processor","no","mono","no","18","no","white","no","yes","768","psycho","8","8","2","/Users/robbertmijn/Documents/projecten_local/10K Faces/face-processor/subject-1.csv","psycho","Lentiform Loewenfeld","3.3.14","0","m","m","m","14429.031957988627","1403.0949580483139","14429.031957988627","NA","NA","2","psycho","1024","2","48000","-16","experiment","1","odd","yes","male","processed_auto/m_366.jpg;processed_auto/f_487.jpg","NA","280100.45762499794","245496.76250002813","246901.92700002808","245493.2061249856","3550.0038330210373","3550.962291075848","294546.23808304314","277434.03787503485","280100.6931250449","NA","277430.25237496477","3550.944457994774","294897.41387497634","277429.9854580313","NA","New experiment","0","14429.031957988627","1","yes","1024"
"5","100","100","368.0292919743806","368.0292919743806","#808080","psycho","psycho","psycho","0","uniform","1","1","1","m","57","57","2","2","2","0","0","57","57","57","0","57","0","57","57","0","Fri Dec 23 17:02:12 2022","The main experiment item","yes","female","processed_auto/f_488.jpg;processed_auto/f_489.jpg;processed_auto/f_490.jpg;processed_auto/f_491.jpg;processed_auto/f_492.jpg;processed_auto/f_493.jpg;processed_auto/f_494.jpg;processed_auto/f_495.jpg;processed_auto/f_496.jpg;processed_auto/f_497.jpg;processed_auto/f_498.jpg;processed_auto/f_499.jpg;processed_auto/f_500.jpg","test_experiment.osexp","/Users/robbertmijn/Documents/projecten_local/10K Faces/face-processor","no","mono","no","18","no","white","no","yes","768","psycho","9","9","2","/Users/robbertmijn/Documents/projecten_local/10K Faces/face-processor/subject-1.csv","psycho","Lentiform Loewenfeld","3.3.14","0","m","m","m","368.0292919743806","1403.0949580483139","368.0292919743806","NA","NA","2","psycho","1024","2","48000","-16","experiment","1","odd","no","male","processed_auto/f_501.jpg;processed_auto/f_502.jpg","NA","297716.3885830669","245496.76250002813","246901.92700002808","245493.2061249856","3550.0038330210373","3550.962291075848","298094.7212909814","295045.45037506614","297716.60983306356","NA","295041.46541596856","3550.944457994774","298445.8675410133","295041.1999580683","NA","New experiment","1","368.0292919743806","1","yes","1024"
"8","0","0","363.37208410259336","363.37208410259336","#808080","psycho","psycho","psycho","0","uniform","0","1","0","m","58","58","2","2","2","0","0","58","58","58","0","58","0","58","58","0","Fri Dec 23 17:02:12 2022","The main experiment item","yes","female","processed_auto/f_503.jpg;processed_auto/f_504.jpg;processed_auto/f_505.jpg;processed_auto/f_506.jpg;processed_auto/f_507.jpg;processed_auto/f_508.jpg;processed_auto/f_509.jpg;processed_auto/f_510.jpg;processed_auto/f_511.jpg;processed_auto/f_512.jpg;processed_auto/f_513.jpg;processed_auto/f_514.jpg;processed_auto/f_515.jpg","test_experiment.osexp","/Users/robbertmijn/Documents/projecten_local/10K Faces/face-processor","no","mono","no","18","no","white","no","yes","768","psycho","10","10","2","/Users/robbertmijn/Documents/projecten_local/10K Faces/face-processor/subject-1.csv","psycho","Lentiform Loewenfeld","3.3.14","0","z","m","z","363.37208410259336","1403.0949580483139","363.37208410259336","NA","NA","2","psycho","1024","2","48000","-16","experiment","1","odd","no","male","processed_auto/f_516.jpg;processed_auto/f_517.jpg","NA","301262.0870000683","245496.76250002813","246901.92700002808","245493.2061249856","3550.0038330210373","3550.962291075848","301635.8928750269","298595.2634579735","301262.310415972","NA","298591.4985410636","3550.944457994774","301987.0473330375","298591.27800003625","NA","New experiment","0","363.37208410259336","1","yes","1024"
"7","100","100","679.1719170287251","679.1719170287251","#808080","psycho","psycho","psycho","0","uniform","1","1","1","m","59","59","2","2","2","0","0","59","59","59","0","59","0","59","59","0","Fri Dec 23 17:02:12 2022","The main experiment item","yes","female","processed_auto/f_518.jpg;processed_auto/f_519.jpg;processed_auto/f_520.jpg;processed_auto/f_521.jpg;processed_auto/f_522.jpg;processed_auto/f_523.jpg;processed_auto/f_524.jpg;processed_auto/f_525.jpg;processed_auto/f_526.jpg;processed_auto/f_527.jpg;processed_auto/f_528.jpg;processed_auto/f_529.jpg;processed_auto/f_530.jpg","test_experiment.osexp","/Users/robbertmijn/Documents/projecten_local/10K Faces/face-processor","no","mono","no","18","no","white","no","yes","768","psycho","11","11","2","/Users/robbertmijn/Documents/projecten_local/10K Faces/face-processor/subject-1.csv","psycho","Lentiform Loewenfeld","3.3.14","0","m","m","m","679.1719170287251","1403.0949580483139","679.1719170287251","NA","NA","2","psycho","1024","2","48000","-16","experiment","1","odd","no","male","processed_auto/f_0.jpg;processed_auto/f_1.jpg","NA","304802.81408305746","245496.76250002813","246901.92700002808","245493.2061249856","3550.0038330210373","3550.962291075848","305492.3192909919","302134.49420803227","304803.0304160202","NA","302130.6763329776","3550.944457994774","305843.4660000494","302130.4112080252","NA","New experiment","1","679.1719170287251","1","yes","1024"
"8","0","0","685.7513750437647","685.7513750437647","#808080","psycho","psycho","psycho","0","uniform","0","1","0","z","60","60","2","2","2","0","0","60","60","60","0","60","0","60","60","0","Fri Dec 23 17:02:12 2022","The main experiment item","yes","female","processed_auto/f_2.jpg;processed_auto/f_3.jpg;processed_auto/f_4.jpg;processed_auto/f_5.jpg;processed_auto/f_6.jpg;processed_auto/f_7.jpg;processed_auto/f_8.jpg;processed_auto/f_9.jpg;processed_auto/f_10.jpg;processed_auto/f_11.jpg;processed_auto/f_12.jpg;processed_auto/f_13.jpg;processed_auto/f_14.jpg","test_experiment.osexp","/Users/robbertmijn/Documents/projecten_local/10K Faces/face-processor","no","mono","no","18","no","white","no","yes","768","psycho","12","12","2","/Users/robbertmijn/Documents/projecten_local/10K Faces/face-processor/subject-1.csv","psycho","Lentiform Loewenfeld","3.3.14","0","m","m","m","685.7513750437647","1403.0949580483139","685.7513750437647","NA","NA","2","psycho","1024","2","48000","-16","experiment","1","odd","yes","male","processed_auto/m_367.jpg;processed_auto/f_15.jpg","NA","308660.3686660528","245496.76250002813","246901.92700002808","245493.2061249856","3550.0038330210373","3550.962291075848","309355.7521250332","305991.3884580601","308660.5879999697","NA","305986.3395000575","3550.944457994774","309706.91779104527","305986.0652079806","NA","New experiment","0","685.7513750437647","1","yes","1024"
"8","100","100","1084.7492080647498","1084.7492080647498","#808080","psycho","psycho","psycho","0","uniform","1","1","1","m","61","61","2","2","2","0","0","61","61","61","0","61","0","61","61","0","Fri Dec 23 17:02:12 2022","The main experiment item","yes","female","processed_auto/f_16.jpg;processed_auto/f_17.jpg;processed_auto/f_18.jpg;processed_auto/f_19.jpg;processed_auto/f_20.jpg;processed_auto/f_21.jpg;processed_auto/f_22.jpg;processed_auto/f_23.jpg;processed_auto/f_24.jpg;processed_auto/f_25.jpg;processed_auto/f_26.jpg;processed_auto/f_27.jpg;processed_auto/f_28.jpg","test_experiment.osexp","/Users/robbertmijn/Documents/projecten_local/10K Faces/face-processor","no","mono","no","18","no","white","no","yes","768","psycho","13","13","2","/Users/robbertmijn/Documents/projecten_local/10K Faces/face-processor/subject-1.csv","psycho","Lentiform Loewenfeld","3.3.14","0","m","m","m","1084.7492080647498","1403.0949580483139","1084.7492080647498","NA","NA","2","psycho","1024","2","48000","-16","experiment","1","odd","no","male","processed_auto/f_29.jpg;processed_auto/f_30.jpg","NA","312521.84291603044","245496.76250002813","246901.92700002808","245493.2061249856","3550.0038330210373","3550.962291075848","313616.9217909919","309854.3146250304","312521.98008296546","NA","309851.03404102847","3550.944457994774","313968.06962497067","309850.83591600414","NA","New experiment","1","1084.7492080647498","1","yes","1024"
"6","0","0","399.82441696338356","399.82441696338356","#808080","psycho","psycho","psycho","0","uniform","0","1","0","m","62","62","2","2","2","0","0","62","62","62","0","62","0","62","62","0","Fri Dec 23 17:02:12 2022","The main experiment item","yes","female","processed_auto/f_31.jpg;processed_auto/f_32.jpg;processed_auto/f_33.jpg;processed_auto/f_34.jpg;processed_auto/f_35.jpg;processed_auto/f_36.jpg;processed_auto/f_37.jpg;processed_auto/f_38.jpg;processed_auto/f_39.jpg;processed_auto/f_40.jpg;processed_auto/f_41.jpg;processed_auto/f_42.jpg;processed_auto/f_43.jpg","test_experiment.osexp","/Users/robbertmijn/Documents/projecten_local/10K Faces/face-processor","no","mono","no","18","no","white","no","yes","768","psycho","14","14","2","/Users/robbertmijn/Documents/projecten_local/10K Faces/face-processor/subject-1.csv","psycho","Lentiform Loewenfeld","3.3.14","0","z","m","z","399.82441696338356","1403.0949580483139","399.82441696338356","NA","NA","2","psycho","1024","2","48000","-16","experiment","1","odd","no","male","processed_auto/f_44.jpg;processed_auto/f_45.jpg","NA","316779.0761659853","245496.76250002813","246901.92700002808","245493.2061249856","3550.0038330210373","3550.962291075848","317190.08566602133","314114.973125048","316779.28979101125","NA","314111.1138330307","3550.944457994774","317541.2859580247","314110.84937502164","NA","New experiment","0","399.82441696338356","1","yes","1024"
"5","100","100","656.8221669876948","656.8221669876948","#808080","psycho","psycho","psycho","0","uniform","1","1","1","m","63","63","2","2","2","0","0","63","63","63","0","63","0","63","63","0","Fri Dec 23 17:02:12 2022","The main experiment item","yes","female","processed_auto/f_46.jpg;processed_auto/f_47.jpg;processed_auto/f_48.jpg;processed_auto/f_49.jpg;processed_auto/f_50.jpg;processed_auto/f_51.jpg;processed_auto/f_52.jpg;processed_auto/f_53.jpg;processed_auto/f_54.jpg;processed_auto/f_55.jpg;processed_auto/f_56.jpg;processed_auto/f_57.jpg;processed_auto/f_58.jpg","test_experiment.osexp","/Users/robbertmijn/Documents/projecten_local/10K Faces/face-processor","no","mono","no","18","no","white","no","yes","768","psycho","15","15","2","/Users/robbertmijn/Documents/projecten_local/10K Faces/face-processor/subject-1.csv","psycho","Lentiform Loewenfeld","3.3.14","0","m","m","m","656.8221669876948","1403.0949580483139","656.8221669876948","NA","NA","2","psycho","1024","2","48000","-16","experiment","1","odd","no","male","processed_auto/f_59.jpg;processed_auto/f_60.jpg","NA","320372.64725007117","245496.76250002813","246901.92700002808","245493.2061249856","3550.0038330210373","3550.962291075848","321038.98529103026","317703.6031250609","320372.78795801103","NA","317699.63320798706","3550.944457994774","321390.1826660149","317699.3670000229","NA","New experiment","1","656.8221669876948","1","yes","1024"
"5","0","0","544.2185000283644","544.2185000283644","#808080","psycho","psycho","psycho","0","uniform","0","1","0","z","64","64","2","2","2","0","0","64","64","64","0","64","0","64","64","0","Fri Dec 23 17:02:12 2022","The main experiment item","yes","female","processed_auto/f_61.jpg;processed_auto/f_62.jpg;processed_auto/f_63.jpg;processed_auto/f_64.jpg;processed_auto/f_65.jpg;processed_auto/f_66.jpg;processed_auto/f_67.jpg;processed_auto/f_68.jpg;processed_auto/f_69.jpg;processed_auto/f_70.jpg;processed_auto/f_71.jpg;processed_auto/f_72.jpg;processed_auto/f_73.jpg","test_experiment.osexp","/Users/robbertmijn/Documents/projecten_local/10K Faces/face-processor","no","mono","no","18","no","white","no","yes","768","psycho","16","16","2","/Users/robbertmijn/Documents/projecten_local/10K Faces/face-processor/subject-1.csv","psycho","Lentiform Loewenfeld","3.3.14","0","m","m","m","544.2185000283644","1403.0949580483139","544.2185000283644","NA","NA","2","psycho","1024","2","48000","-16","experiment","1","odd","yes","male","processed_auto/m_368.jpg;processed_auto/f_74.jpg","NA","324207.65850006137","245496.76250002813","246901.92700002808","245493.2061249856","3550.0038330210373","3550.962291075848","324761.8993750075","321540.12450005393","324207.8970830189","NA","321535.6375409756","3550.944457994774","325113.1068330724","321535.38975003175","NA","New experiment","0","544.2185000283644","1","yes","1024"
"7","100","100","1646.003833040595","1646.003833040595","#808080","psycho","psycho","psycho","0","uniform","1","1","1","m","65","65","2","2","2","0","0","65","65","65","0","65","0","65","65","0","Fri Dec 23 17:02:12 2022","The main experiment item","yes","female","processed_auto/f_75.jpg;processed_auto/f_76.jpg;processed_auto/f_77.jpg;processed_auto/f_78.jpg;processed_auto/f_79.jpg;processed_auto/f_80.jpg;processed_auto/f_81.jpg;processed_auto/f_82.jpg;processed_auto/f_83.jpg;processed_auto/f_84.jpg;processed_auto/f_85.jpg;processed_auto/f_86.jpg;processed_auto/f_87.jpg","test_experiment.osexp","/Users/robbertmijn/Documents/projecten_local/10K Faces/face-processor","no","mono","no","18","no","white","no","yes","768","psycho","17","17","2","/Users/robbertmijn/Documents/projecten_local/10K Faces/face-processor/subject-1.csv","psycho","Lentiform Loewenfeld","3.3.14","0","m","m","m","1646.003833040595","1403.0949580483139","1646.003833040595","NA","NA","2","psycho","1024","2","48000","-16","experiment","1","odd","no","male","processed_auto/f_88.jpg;processed_auto/f_89.jpg","NA","327926.97287502233","245496.76250002813","246901.92700002808","245493.2061249856","3550.0038330210373","3550.962291075848","329585.5725409929","325260.27508301195","327927.1984579973","NA","325256.58554106485","3550.944457994774","329936.7178330431","325256.3620409928","NA","New experiment","1","1646.003833040595","1","yes","1024"
"6","0","0","1434.0690419776365","1434.0690419776365","#808080","psycho","psycho","psycho","0","uniform","0","1","0","m","66","66","2","2","2","0","0","66","66","66","0","66","0","66","66","0","Fri Dec 23 17:02:12 2022","The main experiment item","yes","female","processed_auto/f_90.jpg;processed_auto/f_91.jpg;processed_auto/f_92.jpg;processed_auto/f_93.jpg;processed_auto/f_94.jpg;processed_auto/f_95.jpg;processed_auto/f_96.jpg;processed_auto/f_97.jpg;processed_auto/f_98.jpg;processed_auto/f_99.jpg;processed_auto/f_100.jpg;processed_auto/f_101.jpg;processed_auto/f_102.jpg","test_experiment.osexp","/Users/robbertmijn/Documents/projecten_local/10K Faces/face-processor","no","mono","no","18","no","white","no","yes","768","psycho","18","18","2","/Users/robbertmijn/Documents/projecten_local/10K Faces/face-processor/subject-1.csv","psycho","Lentiform Loewenfeld","3.3.14","0","z","m","z","1434.0690419776365","1403.0949580483139","1434.0690419776365","NA","NA","2","psycho","1024","2","48000","-16","experiment","1","odd","no","male","processed_auto/f_103.jpg;processed_auto/f_104.jpg","NA","332753.31679102965","245496.76250002813","246901.92700002808","245493.2061249856","3550.0038330210373","3550.962291075848","334199.0579579724","330084.99616605695","332753.4618329955","NA","330080.3531249985","3550.944457994774","334550.1864160178","330080.08504100144","NA","New experiment","0","1434.0690419776365","1","yes","1024"
"5","0","0","379.68416698276997","379.68416698276997","#808080","psycho","psycho","psycho","0","uniform","0","1","0","m","67","67","2","2","2","0","0","67","67","67","0","67","0","67","67","0","Fri Dec 23 17:02:12 2022","The main experiment item","yes","female","processed_auto/f_105.jpg;processed_auto/f_106.jpg;processed_auto/f_107.jpg;processed_auto/f_108.jpg;processed_auto/f_109.jpg;processed_auto/f_110.jpg;processed_auto/f_111.jpg;processed_auto/f_112.jpg;processed_auto/f_113.jpg;processed_auto/f_114.jpg;processed_auto/f_115.jpg;processed_auto/f_116.jpg;processed_auto/f_117.jpg","test_experiment.osexp","/Users/robbertmijn/Documents/projecten_local/10K Faces/face-processor","no","mono","no","18","no","white","no","yes","768","psycho","19","19","2","/Users/robbertmijn/Documents/projecten_local/10K Faces/face-processor/subject-1.csv","psycho","Lentiform Loewenfeld","3.3.14","0","z","m","z","379.68416698276997","1403.0949580483139","379.68416698276997","NA","NA","2","psycho","1024","2","48000","-16","experiment","1","odd","no","male","processed_auto/f_118.jpg;processed_auto/f_119.jpg","NA","337363.5495000053","245496.76250002813","246901.92700002808","245493.2061249856","3550.0038330210373","3550.962291075848","337752.8385000769","334699.0622499725","337363.7004160555","NA","334694.821165991","3550.944457994774","338104.03158306144","334694.55058302265","NA","New experiment","0","379.68416698276997","1","yes","1024"
